time, a_pos.x, a_pos.y, a_pos.z, a_vel.x, a_vel.y, a_vel.z, a_acc.x, a_acc.y, a_acc.z, a_ang_vel.x, a_ang_vel.y, a_ang_vel.z, a_eul_ang.x, a_eul_ang.y, a_eul_ang.z, r_pos.x, r_pos.y, r_pos.z, r_vel.x, r_vel.y, r_vel.z, r_acc.x, r_acc.y, r_acc.z, r_eul_ang.x, r_eul_ang.y, r_eul_ang.z, r_torq.x, r_torq.y, r_torq.z, dist_f.x, dist_f.y, dist_f.z, r_thr, r_psi
1744895330.557836294, 0, 0, 0, 0, 0, 0, 0, 0, 0, 0, 0, 0, 0, 0, 0, 0, 0, 0, 0, 0, 0, 0, 0, 0, 0, 0, 0, 0, 0, 0, 0, 0, 0, 0, 0
1744895330.557924986, 0, 0, -0.563819807, 0, 0, -3.35684575, 0, 0, 0, 0, 0, 0, 0, 0, 0, 0, 0, 0, 0, 0, 0, 0, 0, 0, 0, 0, 0, 0, 0, 0, 0, 0, 0, 0, 0
1744895330.559876919, 0, 0, -0.570553858, 0, 0, -3.37720643, 0, 0, 0, 0, 0, 0, 0, 0, 0, 0, 0, 0, 0, 0, 0, 0, 0, 0, 0, 0, 0, 0, 0, 0, 0, 0, 0, 0, 0
1744895330.561891317, 0, 0, -0.577327941, 0, 0, -3.39687834, 0, 0, 0, 0, 0, 0, 0, 0, 0, 0, 0, 0, 0, 0, 0, 0, 0, 0, 0, 0, 0, 0, 0, 0, 0, 0, 0, 0, 0
1744895330.563889742, 0, 0, -0.584140694, 0, 0, -3.41587518, 0, 0, 0, 0, 0, 0, 0, 0, 0, 0, 0, 0, 0, 0, 0, 0, 0, 0, 0, 0, 0, 0, 0, 0, 0, 0, 0, 0, 0
1744895330.565888405, 0, 0, -0.590990778, 0, 0, -3.43421038, 0, 0, 0, 0, 0, 0, 0, 0, 0, 0, 0, 0, 0, 0, 0, 0, 0, 0, 0, 0, 0, 0, 0, 0, 0, 0, 0, 0, 0
1744895330.567915201, 0, 0, -0.590990778, 0, 0, -3.43421038, 0, 0, 0, 0, 0, 0, 0, 0, 0, 0, 0, 0, 0, 0, 0, 0, 0, 0, 0, 0, 0, 0, 0, 0, 0, 0, 0, 0, 0
1744895330.569897890, 2.21481194e-14, -5.20048415e-14, -0.597876884, 4.42961429e-11, -1.04009724e-10, -3.45189708, 0, 0, 0, 0, 0, 0, 0, 0, 0, 0, 0, 0, 0, 0, 0, 0, 0, 0, 0, 0, 0, 0, 0, 0, 0, 0, 0, 0, 0
1744895330.571889162, 2.86529197e-12, -6.72818741e-12, -0.611752051, 2.23503212e-09, -5.24838712e-09, -3.48537628, 0, 0, 0, 0, 0, 0, 0, 0, 0, 0, 0, 0, 0, 0, 0, 0, 0, 0, 0, 0, 0, 0, 0, 0, 0, 0, 0, 0, 0
1744895330.573901415, 1.15267177e-11, -2.70683842e-11, -0.61873862, 7.02290238e-09, -1.64930521e-08, -3.50119377, 0, 0, 0, 0, 0, 0, 0, 0, 0, 0, 0, 0, 0, 0, 0, 0, 0, 0, 0, 0, 0, 0, 0, 0, 0, 0, 0, 0, 0
1744895330.575897455, 3.50771285e-11, -8.23803785e-11, -0.625756225, 1.75784847e-08, -4.12887831e-08, -3.51641275, 0, 0, 0, 0, 0, 0, 0, 0, 0, 0, 0, 0, 0, 0, 0, 0, 0, 0, 0, 0, 0, 0, 0, 0, 0, 0, 0, 0, 0
1744895330.577893019, 8.87735158e-11, -2.08518772e-10, -0.632803682, 3.77509981e-08, -8.86898275e-08, -3.53104509, 0, 0, 0, 0, 0, 0, 0, 0, 0, 0, 0, 0, 0, 0, 0, 0, 0, 0, 0, 0, 0, 0, 0, 0, 0, 0, 0, 0, 0
1744895330.579891443, 1.96466897e-10, -4.61566141e-10, -0.639879828, 7.22438346e-08, -1.69773902e-07, -3.54510243, 0, 0, 0, 0, 0, 0, 0, 0, 0, 0, 0, 0, 0, 0, 0, 0, 0, 0, 0, 0, 0, 0, 0, 0, 0, 0, 0, 0, 0
1744895330.581891298, 3.92156101e-10, -9.21526212e-10, -0.646983526, 1.26497334e-07, -2.97376324e-07, -3.55859616, 0, 0, 0, 0, 0, 0, 0, 0, 0, 0, 0, 0, 0, 0, 0, 0, 0, 0, 0, 0, 0, 0, 0, 0, 0, 0, 0, 0, 0
1744895330.583890438, 7.21419932e-10, -1.69575184e-09, -0.654113659, 2.06647092e-07, -4.86003087e-07, -3.57153745, 0, 0, 0, 0, 0, 0, 0, 0, 0, 0, 0, 0, 0, 0, 0, 0, 0, 0, 0, 0, 0, 0, 0, 0, 0, 0, 0, 0, 0
1744895330.585892200, 1.24276689e-09, -2.92220276e-09, -0.661269132, 3.19483221e-07, -7.51747589e-07, -3.58393723, 0, 0, 0, 0, 0, 0, 0, 0, 0, 0, 0, 0, 0, 0, 0, 0, 0, 0, 0, 0, 0, 0, 0, 0, 0, 0, 0, 0, 0
1744895330.587896347, 2.02890394e-09, -4.77253937e-09, -0.668448875, 4.72409679e-07, -1.11220879e-06, -3.59580623, 0, 0, 0, 0, 0, 0, 0, 0, 0, 0, 0, 0, 0, 0, 0, 0, 0, 0, 0, 0, 0, 0, 0, 0, 0, 0, 0, 0, 0
1744895330.589898825, 3.16792145e-09, -7.45504804e-09, -0.675651835, 6.73401476e-07, -1.58640548e-06, -3.60715493, 0, 0, 0, 0, 0, 0, 0, 0, 0, 0, 0, 0, 0, 0, 0, 0, 0, 0, 0, 0, 0, 0, 0, 0, 0, 0, 0, 0, 0
1744895330.591890812, 4.76439496e-09, -1.12174017e-08, -0.682876983, 9.30964813e-07, -2.19469844e-06, -3.61799364, 0, 0, 0, 0, 0, 0, 0, 0, 0, 0, 0, 0, 0, 0, 0, 0, 0, 0, 0, 0, 0, 0, 0, 0, 0, 0, 0, 0, 0
1744895330.593886375, 6.9404095e-09, -1.6349271e-08, -0.690123308, 1.25409902e-06, -2.9587177e-06, -3.62833244, 0, 0, 0, 0, 0, 0, 0, 0, 0, 0, 0, 0, 0, 0, 0, 0, 0, 0, 0, 0, 0, 0, 0, 0, 0, 0, 0, 0, 0
1744895330.595886230, 9.83650869e-09, -2.31847927e-08, -0.697389821, 1.65225953e-06, -3.90129295e-06, -3.6381812, 0, 0, 0, 0, 0, 0, 0, 0, 0, 0, 0, 0, 0, 0, 0, 0, 0, 0, 0, 0, 0, 0, 0, 0, 0, 0, 0, 0, 0
1744895330.597886086, 1.36125701e-08, -3.21049005e-08, -0.704675551, 2.13532039e-06, -5.04638357e-06, -3.64754959, 0, 0, 0, 0, 0, 0, 0, 0, 0, 0, 0, 0, 0, 0, 0, 0, 0, 0, 0, 0, 0, 0, 0, 0, 0, 0, 0, 0, 0
1744895330.599912643, 1.84486015e-08, -4.35395064e-08, -0.711979547, 2.713533e-06, -6.41900021e-06, -3.65644712, 0, 0, 0, 0, 0, 0, 0, 0, 0, 0, 0, 0, 0, 0, 0, 0, 0, 0, 0, 0, 0, 0, 0, 0, 0, 0, 0, 0, 0
1744895330.601886988, 2.45454576e-08, -5.79695336e-08, -0.719300876, 3.39748949e-06, -8.04513752e-06, -3.66488306, 0, 0, 0, 0, 0, 0, 0, 0, 0, 0, 0, 0, 0, 0, 0, 0, 0, 0, 0, 0, 0, 0, 0, 0, 0, 0, 0, 0, 0
1744895330.603889704, 3.21254879e-08, -7.59288234e-08, -0.726638625, 4.1980884e-06, -9.95171295e-06, -3.67286652, 0, 0, 0, 0, 0, 0, 0, 0, 0, 0, 0, 0, 0, 0, 0, 0, 0, 0, 0, 0, 0, 0, 0, 0, 0, 0, 0, 0, 0
1744895330.605903149, 4.14331157e-08, -9.80059221e-08, -0.733991898, 5.12650156e-06, -1.21665083e-05, -3.68040643, 0, 0, 0, 0, 0, 0, 0, 0, 0, 0, 0, 0, 0, 0, 0, 0, 0, 0, 0, 0, 0, 0, 0, 0, 0, 0, 0, 0, 0
1744895330.607891798, 5.27353519e-08, -1.24845751e-07, -0.741359815, 6.19414021e-06, -1.47181096e-05, -3.68751152, 0, 0, 0, 0, 0, 0, 0, 0, 0, 0, 0, 0, 0, 0, 0, 0, 0, 0, 0, 0, 0, 0, 0, 0, 0, 0, 0, 0, 0
1744895330.609893799, 6.63222354e-08, -1.57151147e-07, -0.748741517, 7.41261675e-06, -1.76358372e-05, -3.69419037, 0, 0, 0, 0, 0, 0, 0, 0, 0, 0, 0, 0, 0, 0, 0, 0, 0, 0, 0, 0, 0, 0, 0, 0, 0, 0, 0, 0, 0
1744895330.611888885, 8.25072015e-08, -1.95684265e-07, -0.756136158, 8.79371188e-06, -2.09496873e-05, -3.70045136, 0, 0, 0, 0, 0, 0, 0, 0, 0, 0, 0, 0, 0, 0, 0, 0, 0, 0, 0, 0, 0, 0, 0, 0, 0, 0, 0, 0, 0
1744895330.613887310, 1.01627389e-07, -2.41267888e-07, -0.763542911, 1.03493447e-05, -2.46902817e-05, -3.70630272, 0, 0, 0, 0, 0, 0, 0, 0, 0, 0, 0, 0, 0, 0, 0, 0, 0, 0, 0, 0, 0, 0, 0, 0, 0, 0, 0, 0, 0
1744895330.615886927, 1.24043888e-07, -2.9478662e-07, -0.770960966, 1.20915434e-05, -2.8888818e-05, -3.71175251, 0, 0, 0, 0, 0, 0, 0, 0, 0, 0, 0, 0, 0, 0, 0, 0, 0, 0, 0, 0, 0, 0, 0, 0, 0, 0, 0, 0, 0
1744895330.617893219, 1.5014194e-07, -3.57188019e-07, -0.778389527, 1.40324428e-05, -3.35770687e-05, -3.71680864, 0, 0, 0, 0, 0, 0, 0, 0, 0, 0, 0, 0, 0, 0, 0, 0, 0, 0, 0, 0, 0, 0, 0, 0, 0, 0, 0, 0, 0
1744895330.619891405, 1.80331232e-07, -4.29483884e-07, -0.785827814, 1.61843599e-05, -3.87875236e-05, -3.72147882, 0, 0, 0, 0, 0, 0, 0, 0, 0, 0, 0, 0, 0, 0, 0, 0, 0, 0, 0, 0, 0, 0, 0, 0, 0, 0, 0, 0, 0
1744895330.621902466, 2.15046275e-07, -5.12751739e-07, -0.793275063, 1.85598035e-05, -4.45534156e-05, -3.72577066, 0, 0, 0, 0, 0, 0, 0, 0, 0, 0, 0, 0, 0, 0, 0, 0, 0, 0, 0, 0, 0, 0, 0, 0, 0, 0, 0, 0, 0
1744895330.623890162, 2.54746777e-07, -6.08136302e-07, -0.800730525, 2.11714575e-05, -5.09087034e-05, -3.72969157, 0, 0, 0, 0, 0, 0, 0, 0, 0, 0, 0, 0, 0, 0, 0, 0, 0, 0, 0, 0, 0, 0, 0, 0, 0, 0, 0, 0, 0
1744895330.625887632, 2.99917976e-07, -7.16850917e-07, -0.808193465, 2.40321658e-05, -5.78880555e-05, -3.73324885, 0, 0, 0, 0, 0, 0, 0, 0, 0, 0, 0, 0, 0, 0, 0, 0, 0, 0, 0, 0, 0, 0, 0, 0, 0, 0, 0, 0, 0
1744895330.627886772, 3.51070925e-07, -8.40178934e-07, -0.815663163, 2.71548836e-05, -6.5526775e-05, -3.73644963, 0, 0, 0, 0, 0, 0, 0, 0, 0, 0, 0, 0, 0, 0, 0, 0, 0, 0, 0, 0, 0, 0, 0, 0, 0, 0, 0, 0, 0
1744895330.629888058, 4.08742575e-07, -9.79474711e-07, -0.823138914, 3.0552533e-05, -7.38605376e-05, -3.73930089, 0, 0, 0, 0, 0, 0, 0, 0, 0, 0, 0, 0, 0, 0, 0, 0, 0, 0, 0, 0, 0, 0, 0, 0, 0, 0, 0, 0, 0
1744895330.631887197, 4.73495632e-07, -1.13616424e-06, -0.830620024, 3.42379452e-05, -8.29252936e-05, -3.74180949, 0, 0, 0, 0, 0, 0, 0, 0, 0, 0, 0, 0, 0, 0, 0, 0, 0, 0, 0, 0, 0, 0, 0, 0, 0, 0, 0, 0, 0
1744895330.633887291, 5.45918353e-07, -1.31174565e-06, -0.838105815, 3.82238355e-05, -9.2757229e-05, -3.74398215, 0, 0, 0, 0, 0, 0, 0, 0, 0, 0, 0, 0, 0, 0, 0, 0, 0, 0, 0, 0, 0, 0, 0, 0, 0, 0, 0, 0, 0
1744895330.635971069, 5.45918353e-07, -1.31174565e-06, -0.838105815, 3.82238355e-05, -9.2757229e-05, -3.74398215, 0, 0, 0, 0, 0, 0, 0, 0, 0, 0, 0, 0, 0, 0, 0, 0, 0, 0, 0, 0, 0, 0, 0, 0, 0, 0, 0, 0, 0
1744895330.637887955, 7.1625197e-07, -1.72593988e-06, -0.853088794, 4.71471832e-05, -0.000114868336, -3.74734583, 0, 0, 0, 0, 0, 0, 0, 0, 0, 0, 0, 0, 0, 0, 0, 0, 0, 0, 0, 0, 0, 0, 0, 0, 0, 0, 0, 0, 0
1744895330.639908075, 8.15464563e-07, -1.96791317e-06, -0.860584689, 5.21092597e-05, -0.000127220696, -3.74854961, 0, 0, 0, 0, 0, 0, 0, 0, 0, 0, 0, 0, 0, 0, 0, 0, 0, 0, 0, 0, 0, 0, 0, 0, 0, 0, 0, 0, 0
1744895330.641894817, 9.24949426e-07, -2.23549972e-06, -0.868082682, 5.74209964e-05, -0.000140486515, -3.74944298, 0, 0, 0, 0, 0, 0, 0, 0, 0, 0, 0, 0, 0, 0, 0, 0, 0, 0, 0, 0, 0, 0, 0, 0, 0, 0, 0, 0, 0
1744895330.643908262, 9.24949426e-07, -2.23549972e-06, -0.868082682, 5.74209964e-05, -0.000140486515, -3.74944298, 0, 0, 0, 0, 0, 0, 0, 0, 0, 0, 0, 0, 0, 0, 0, 0, 0, 0, 0, 0, 0, 0, 0, 0, 0, 0, 0, 0, 0
1744895330.645902395, 1.17760359e-06, -2.85504062e-06, -0.883082511, 6.91401694e-05, -0.000169905481, -3.75032266, 0, 0, 0, 0, 0, 0, 0, 0, 0, 0, 0, 0, 0, 0, 0, 0, 0, 0, 0, 0, 0, 0, 0, 0, 0, 0, 0, 0, 0
1744895330.647902727, 1.32226423e-06, -3.21094265e-06, -0.890583155, 7.55702881e-05, -0.00018613207, -3.75032073, 0, 0, 0, 0, 0, 0, 0, 0, 0, 0, 0, 0, 0, 0, 0, 0, 0, 0, 0, 0, 0, 0, 0, 0, 0, 0, 0, 0, 0
1744895330.649889469, 1.48017868e-06, -3.60035315e-06, -0.898083507, 8.2395383e-05, -0.000203418913, -3.75003196, 0, 0, 0, 0, 0, 0, 0, 0, 0, 0, 0, 0, 0, 0, 0, 0, 0, 0, 0, 0, 0, 0, 0, 0, 0, 0, 0, 0, 0
1744895330.651887417, 1.65214751e-06, -4.02542913e-06, -0.905583001, 8.96260114e-05, -0.000221802508, -3.74946193, 0, 0, 0, 0, 0, 0, 0, 0, 0, 0, 0, 0, 0, 0, 0, 0, 0, 0, 0, 0, 0, 0, 0, 0, 0, 0, 0, 0, 0
1744895330.653900623, 1.83899204e-06, -4.48840044e-06, -0.913081079, 9.72723843e-05, -0.000241319206, -3.74861612, 0, 0, 0, 0, 0, 0, 0, 0, 0, 0, 0, 0, 0, 0, 0, 0, 0, 0, 0, 0, 0, 0, 0, 0, 0, 0, 0, 0, 0
1744895330.655889034, 2.04155364e-06, -4.9915695e-06, -0.920577196, 0.000105344351, -0.000262005189, -3.74749992, 0, 0, 0, 0, 0, 0, 0, 0, 0, 0, 0, 0, 0, 0, 0, 0, 0, 0, 0, 0, 0, 0, 0, 0, 0, 0, 0, 0, 0
1744895330.657890797, 2.26069303e-06, -5.53731085e-06, -0.928070814, 0.000113851383, -0.000283896436, -3.74611859, 0, 0, 0, 0, 0, 0, 0, 0, 0, 0, 0, 0, 0, 0, 0, 0, 0, 0, 0, 0, 0, 0, 0, 0, 0, 0, 0, 0, 0
1744895330.659888506, 2.49728947e-06, -6.12807078e-06, -0.93556141, 0.000122802552, -0.000307028681, -3.74447729, 0, 0, 0, 0, 0, 0, 0, 0, 0, 0, 0, 0, 0, 0, 0, 0, 0, 0, 0, 0, 0, 0, 0, 0, 0, 0, 0, 0, 0
1744895330.661888599, 2.75223994e-06, -6.76636677e-06, -0.943048469, 0.00013220651, -0.000331437382, -3.74258108, 0, 0, 0, 0, 0, 0, 0, 0, 0, 0, 0, 0, 0, 0, 0, 0, 0, 0, 0, 0, 0, 0, 0, 0, 0, 0, 0, 0, 0
1744895330.663887024, 3.02645831e-06, -7.45478692e-06, -0.950531485, 0.000142071486, -0.000357157702, -3.74043492, 0, 0, 0, 0, 0, 0, 0, 0, 0, 0, 0, 0, 0, 0, 0, 0, 0, 0, 0, 0, 0, 0, 0, 0, 0, 0, 0, 0, 0
1744895330.665887594, 3.32087445e-06, -8.19598934e-06, -0.958009964, 0.000152405269, -0.000384224483, -3.73804367, 0, 0, 0, 0, 0, 0, 0, 0, 0, 0, 0, 0, 0, 0, 0, 0, 0, 0, 0, 0, 0, 0, 0, 0, 0, 0, 0, 0, 0
1744895330.667901993, 3.63643342e-06, -8.99270152e-06, -0.96548342, 0.000163215273, -0.000412672313, -3.73541208, 0, 0, 0, 0, 0, 0, 0, 0, 0, 0, 0, 0, 0, 0, 0, 0, 0, 0, 0, 0, 0, 0, 0, 0, 0, 0, 0, 0, 0
1744895330.669908285, 3.97409497e-06, -9.84772016e-06, -0.972951377, 0.000174508814, -0.000442535822, -3.73254484, 0, 0, 0, 0, 0, 0, 0, 0, 0, 0, 0, 0, 0, 0, 0, 0, 0, 0, 0, 0, 0, 0, 0, 0, 0, 0, 0, 0, 0
1744895330.671883583, 4.33483345e-06, -1.07639113e-05, -0.980413368, 0.00018629318, -0.000473849757, -3.72944651, 0, 0, 0, 0, 0, 0, 0, 0, 0, 0, 0, 0, 0, 0, 0, 0, 0, 0, 0, 0, 0, 0, 0, 0, 0, 0, 0, 0, 0
1744895330.678054333, 4.33483345e-06, -1.07639113e-05, -0.980413368, 0.00018629318, -0.000473849757, -3.72944651, 0, 0, 0, 0, 0, 0, 0, 0, 0, 0, 0, 0, 0, 0, 0, 0, 0, 0, 0, 0, 0, 0, 0, 0, 0, 0, 0, 0, 0
1744895330.678156137, 4.33483345e-06, -1.07639113e-05, -0.980413368, 0.00018629318, -0.000473849757, -3.72944651, 0, 0, 0, 0, 0, 0, 0, 0, 0, 0, 0, 0, 0, 0, 0, 0, 0, 0, 0, 0, 0, 0, 0, 0, 0, 0, 0, 0, 0
1744895330.680177212, 4.33483345e-06, -1.07639113e-05, -0.980413368, 0.00018629318, -0.000473849757, -3.72944651, 0, 0, 0, 0, 0, 0, 0, 0, 0, 0, 0, 0, 0, 0, 0, 0, 0, 0, 0, 0, 0, -0.000129209177, -5.61925241e-05, 0.0019075762, 0, 0, 0, 0, 0
1744895330.682531834, 5.56547175e-06, -1.39092262e-05, -1.00275902, 0.000224663595, -0.00057684346, -3.71880935, 0.0067499394, -0.0182525352, 1.8829879, 0.025517, 0.00983316561, -1.11554612, 0.0014656677, 0.000647666336, -0.0618790023, 0, 0, 0, 0, 0, 0, 0, 0, 0, 0, 0, 0, -0.000129209177, -5.61925241e-05, 0.0019075762, 0, 0, 0, 0, 0
1744895330.684136391, 6.02855126e-06, -1.51001641e-05, -1.01019266, 0.000238483358, -0.000614308983, -3.7148306, 0.00701113837, -0.0190554329, 1.98985746, 0.0258856972, 0.00995877337, -1.13595153, 0.00151558602, 0.000670814754, -0.0641304685, 0, 0, 0, 0, 0, 0, 0, 0, 0, 0, 0, 0, -0.000143857791, -6.42805173e-05, 0.00270776101, 0, 0, 0, 0, 0
1744895330.686273336, 6.51979558e-06, -1.63676534e-05, -1.01761813, 0.000252829303, -0.000653399974, -3.7106423, 0.00727555337, -0.0198757195, 2.09465863, 0.0262474452, 0.0100788538, -1.15612212, 0.00156615451, 0.000694384505, -0.0664225091, 0, 0, 0, 0, 0, 0, 0, 0, 0, 0, 0, 0, -0.000143857791, -6.42805173e-05, 0.00270776101, 0, 0, 0, 0, 0
1744895330.688144207, 7.04026329e-06, -1.77149797e-05, -1.02503502, 0.000252829303, -0.000653399974, -3.7106423, 0.00727555337, -0.0198757195, 2.09465863, 0.0262474452, 0.0100788538, -1.15612212, 0.00156615451, 0.000694384505, -0.0664225091, 0, 0, 0, 0, 0, 0, 0, 0, 0, 0, 0, 0, -0.000143857791, -6.42805173e-05, 0.00270776101, 0, 0, 0, 0, 0
1744895330.690324545, 7.59102475e-06, -1.91454971e-05, -1.03244292, 0.000283123791, -0.000736595991, -3.70165317, 0.0078130087, -0.0215676622, 2.29821979, 0.0269489523, 0.0103017989, -1.19572962, 0.00166917429, 0.000742761892, -0.0711263846, 0, 0, 0, 0, 0, 0, 0, 0, 0, 0, 0, 0, -0.000143857791, -6.42805173e-05, 0.00270776101, 0, 0, 0, 0, 0
1744895330.692570210, 8.17316102e-06, -2.06626274e-05, -1.03984144, 0.000299083062, -0.000780768795, -3.6968602, 0.00808552439, -0.022438894, 2.39705971, 0.027288852, 0.0104047452, -1.21517141, 0.0017215914, 0.000767556168, -0.0735372478, 0, 0, 0, 0, 0, 0, 0, 0, 0, 0, 0, 0, -0.000143857791, -6.42805173e-05, 0.00270776101, 0, 0, 0, 0, 0
1744895330.694123507, 8.78776287e-06, -2.22698594e-05, -1.04723017, 0.000315589953, -0.000826702592, -3.69187342, 0.00836021048, -0.0233266723, 2.49399114, 0.0276216071, 0.0105020627, -1.23437511, 0.00177459076, 0.000792745337, -0.0759867547, 0, 0, 0, 0, 0, 0, 0, 0, 0, 0, 0, 0, -0.000212391024, -9.85938209e-05, 0.00604014128, 0, 0, 0, 0, 0
1744895330.696393251, 9.43592963e-06, -2.3970748e-05, -1.05460874, 0.000332648499, -0.000874430173, -3.68669657, 0.00863679748, -0.0242307695, 2.58905206, 0.0279472843, 0.0105937941, -1.2533431, 0.00182815564, 0.00081832283, -0.0784744317, 0.00182262623, -0.00428613453, 0.00203289445, 0.0133683321, -0.0313655985, 0.0149522975, 0.0638540232, -0.14909207, 0.0718401534, 0, 0, 0, -0.000212391024, -9.85938209e-05, 0.00604014128, 0, 0, 0, 0, -0.406849365
1744895330.698136091, 1.01187682e-05, -2.57689132e-05, -1.06197677, 0.000350262183, -0.000923983843, -3.6813333, 0.00891500176, -0.0251509227, 2.68227969, 0.0282637362, 0.0106788796, -1.27202399, 0.00188226725, 0.000844280918, -0.0809997559, 0.00182262623, -0.00428613453, 0.00203289445, 0.0133683321, -0.0313655985, 0.0149522975, 0.0638540232, -0.14909207, 0.0718401534, 0, 0, 0, -0.000212391024, -9.85938209e-05, 0.00604014128, 0, 0, 0, 0, -0.406849365
1744895330.700137377, 1.08373918e-05, -2.76680388e-05, -1.06933389, 0.000368433904, -0.000975395339, -3.67578721, 0.00919452617, -0.0260868329, 2.77371049, 0.0285710448, 0.0107573829, -1.29042065, 0.00193690481, 0.00087061071, -0.0835621558, 0.00182262623, -0.00428613453, 0.00203289445, 0.0133683321, -0.0313655985, 0.0149522975, 0.0638540232, -0.14909207, 0.0718401534, 0, 0, 0, -0.000212391024, -9.85938209e-05, 0.00604014128, 0, 0, 0, 0, -0.406849365
1744895330.702905655, 1.15929189e-05, -2.96718717e-05, -1.07667974, 0.000387165965, -0.00102869579, -3.67006182, 0.00947507243, -0.0270381951, 2.8633802, 0.0288692905, 0.010829368, -1.30853591, 0.00199204772, 0.000897303367, -0.086161066, 0.00182262623, -0.00428613453, 0.00203289445, 0.0133683321, -0.0313655985, 0.0149522975, 0.0638540232, -0.14909207, 0.0718401534, 0, 0, 0, -0.000212391024, -9.85938209e-05, 0.00604014128, 0, 0, 0, 0, -0.406849365
1744895330.704138279, 1.2386472e-05, -3.17842205e-05, -1.08401397, 0.000406460073, -0.00108391571, -3.66416058, 0.00975634167, -0.028004698, 2.95132382, 0.0291585521, 0.0108948999, -1.32637261, 0.00204767557, 0.000924350098, -0.0887959264, 0.00182262623, -0.00428613453, 0.00203289445, 0.0133683321, -0.0313655985, 0.0149522975, 0.0638540232, -0.14909207, 0.0718401534, 0, 0, 0, -0.000231932785, -0.000110900095, 0.00724921007, 0, 0, 0, 0, -0.406849365
1744895330.706223249, 1.32191764e-05, -3.40089541e-05, -1.09133621, 0.000426317335, -0.00114108499, -3.65808688, 0.0100380347, -0.0289860252, 3.03757567, 0.029438907, 0.010954044, -1.34393351, 0.00210376811, 0.000951742163, -0.0914661825, 0.00182262623, -0.00428613453, 0.00203289445, 0.0133683321, -0.0313655985, 0.0149522975, 0.0638540232, -0.14909207, 0.0718401534, 0, 0, 0, -0.000231932785, -0.000110900095, 0.00724921007, 0, 0, 0, 0, -0.406849365
1744895330.708157063, 1.4092159e-05, -3.63500005e-05, -1.09864614, 0.000446738259, -0.00120023287, -3.65184403, 0.0103198481, -0.0299818457, 3.12216935, 0.0297097997, 0.0110064709, -1.36120189, 0.00216030468, 0.000979470428, -0.0941712662, 0.00182262623, -0.00428613453, 0.00203289445, 0.0133683321, -0.0313655985, 0.0149522975, 0.0638540232, -0.14909207, 0.0718401534, 0, 0, 0, -0.000231932785, -0.000110900095, 0.00724921007, 0, 0, 0, 0, -0.406849365
1744895330.710139990, 1.50065471e-05, -3.88113455e-05, -1.10594342, 0.00046772274, -0.0012613879, -3.64543528, 0.0106014743, -0.0309918147, 3.2051378, 0.0299713093, 0.011052254, -1.37818065, 0.00221726418, 0.00100752537, -0.0969105953, 0.00182262623, -0.00428613453, 0.00203289445, 0.0133683321, -0.0313655985, 0.0149522975, 0.0638540232, -0.14909207, 0.0718401534, 0.00440342642, 0.00241420302, -0.406849365, -0.000231932785, -0.000110900095, 0.00724921007, 0, 0, 0, 7.848, -0.406849365
1744895330.712149382, 1.59634672e-05, -4.13970314e-05, -1.11322772, 0.000489270059, -0.00132457797, -3.63886382, 0.0108826071, -0.0320155822, 3.2865133, 0.0302235135, 0.0110914675, -1.39487271, 0.00227462572, 0.00103589751, -0.0996835934, 0.00182262623, -0.00428613453, 0.00203289445, 0.0133683321, -0.0313655985, 0.0149522975, 0.0638540232, -0.14909207, 0.0718401534, 0.00440342642, 0.00241420302, -0.406849365, -0.000231932785, -0.000110900095, 0.00724921007, 0, 0, 0, 7.848, -0.406849365
1744895330.714133263, 1.69640436e-05, -4.41111555e-05, -1.12049872, 0.000511378887, -0.00138983023, -3.63213276, 0.0111629413, -0.0330527937, 3.36632748, 0.0304664884, 0.0111241857, -1.41128092, 0.00233236857, 0.00106457741, -0.10248969, 0.00182262623, -0.00428613453, 0.00203289445, 0.0133683321, -0.0313655985, 0.0149522975, 0.0638540232, -0.14909207, 0.0718401534, 0.00440342642, 0.00241420302, -0.406849365, 5.48780349e-05, 0.000341384809, -0.0324487915, 0, 0, 0, 7.848, -0.406849365
1744895330.716134787, 1.80093977e-05, -4.69578689e-05, -1.1277561, 0.000534047285, -0.00145717113, -3.62524516, 0.0114421736, -0.0341030902, 3.44461132, 0.0307003086, 0.0111504838, -1.42740813, 0.00239047221, 0.0010935557, -0.10532832, 0.00182262623, -0.00428613453, 0.00203289445, 0.0133683321, -0.0313655985, 0.0149522975, 0.0638540232, -0.14909207, 0.0718401534, 0.00440342642, 0.00241420302, -0.406849365, 5.48780349e-05, 0.000341384809, -0.0324487915, 0, 0, 0, 7.848, -0.406849365
1744895330.718134403, 1.91006461e-05, -4.99413745e-05, -1.13499955, 0.000557272837, -0.00152662651, -3.61820404, 0.0117201882, -0.035166257, 3.5213952, 0.0309343277, 0.011184994, -1.44389744, 0.00244892486, 0.00112283916, -0.108199565, 0.00182262623, -0.00428613453, 0.00203289445, 0.0133683321, -0.0313655985, 0.0149522975, 0.0638540232, -0.14909207, 0.0718401534, 0.00440342642, 0.00241420302, -0.406849365, 5.48780349e-05, 0.000341384809, -0.0324487915, 0, 0, 0, 7.848, -0.406849365
1744895330.720142365, 2.02389007e-05, -5.3065927e-05, -1.14222877, 0.000581053143, -0.00159822195, -3.61101231, 0.0119970565, -0.0362422293, 3.59670885, 0.0311685818, 0.0112275793, -1.46074522, 0.00250772331, 0.00115245067, -0.111104145, 0.00182262623, -0.00428613453, 0.00203289445, 0.0133683321, -0.0313655985, 0.0149522975, 0.0638540232, -0.14909207, 0.0718401534, 0.00440342642, 0.00241420302, -0.406849365, 5.48780349e-05, 0.000341384809, -0.0324487915, 0, 0, 0, 7.848, -0.406849365
1744895330.722129583, 2.14252687e-05, -5.6335832e-05, -1.14944345, 0.000605385952, -0.00167198294, -3.60367288, 0.0122728504, -0.0373309468, 3.67058145, 0.0314031076, 0.011278103, -1.47794788, 0.00256686426, 0.00118241298, -0.114042774, 0.00182262623, -0.00428613453, 0.00203289445, 0.0133683321, -0.0313655985, 0.0149522975, 0.0638540232, -0.14909207, 0.0718401534, 0.00440342642, 0.00241420302, -0.406849365, 5.48780349e-05, 0.000341384809, -0.0324487915, 0, 0, 0, 7.848, -0.406849365
1744895330.724129438, 2.2660853e-05, -5.9755446e-05, -1.15664331, 0.000630269157, -0.00174793484, -3.59618855, 0.0125476424, -0.0384323538, 3.74304156, 0.031637942, 0.0113364292, -1.49550189, 0.00262634436, 0.00121274869, -0.117016157, 0.00182262623, -0.00428613453, 0.00203289445, 0.0133683321, -0.0313655985, 0.0149522975, 0.0638540232, -0.14909207, 0.0718401534, 0.00440342642, 0.00241420302, -0.406849365, -0.000258434148, -0.000124142193, 0.00872980266, 0, 0, 0, 7.848, -0.406849365
1744895330.726137877, 2.39467524e-05, -6.33291758e-05, -1.16382807, 0.0006557008, -0.0018261029, -3.5885621, 0.0128215043, -0.039546399, 3.81411716, 0.0318731225, 0.0114024227, -1.51340373, 0.00268616013, 0.00124348027, -0.120024994, 0.00182262623, -0.00428613453, 0.00203289445, 0.0133683321, -0.0313655985, 0.0149522975, 0.0638540232, -0.14909207, 0.0718401534, 0.00440342642, 0.00241420302, -0.406849365, -0.000258434148, -0.000124142193, 0.00872980266, 0, 0, 0, 7.848, -0.406849365
1744895330.728131294, 2.52840619e-05, -6.70614792e-05, -1.17099742, 0.000681678937, -0.00190651216, -3.58079625, 0.0130943152, -0.0406728679, 3.88383571, 0.0320985498, 0.0114609682, -1.53098575, 0.00274629878, 0.00127461323, -0.123069312, 0.00182262623, -0.00428613453, 0.00203289445, 0.0133683321, -0.0313655985, 0.0149522975, 0.0638540232, -0.14909207, 0.0718401534, 0.00440342642, 0.00241420302, -0.406849365, -0.000258434148, -0.000124142193, 0.00872980266, 0, 0, 0, 7.848, -0.406849365
1744895330.730130911, 2.66738721e-05, -7.09568628e-05, -1.17815112, 0.000708201131, -0.00198918704, -3.57289364, 0.0133657627, -0.0418113775, 3.95222407, 0.0323143015, 0.0115121561, -1.54825114, 0.00280673827, 0.0013061362, -0.126148476, 0.00182262623, -0.00428613453, 0.00203289445, 0.0133683321, -0.0313655985, 0.0149522975, 0.0638540232, -0.14909207, 0.0718401534, 0.00440342642, 0.00241420302, -0.406849365, -0.000258434148, -0.000124142193, 0.00872980266, 0, 0, 0, 7.848, -0.406849365
1744895330.732153177, 2.81172681e-05, -7.50198817e-05, -1.18528887, 0.000735264317, -0.00207415116, -3.5648569, 0.0136355366, -0.0429615408, 4.01930859, 0.0325204539, 0.011556077, -1.56520307, 0.00286745679, 0.0013380379, -0.129261855, 0.00182262623, -0.00428613453, 0.00203289445, 0.0133683321, -0.0313655985, 0.0149522975, 0.0638540232, -0.14909207, 0.0718401534, 0.00440342642, 0.00241420302, -0.406849365, -0.000258434148, -0.000124142193, 0.00872980266, 0, 0, 0, 7.848, -0.406849365
1744895330.734140396, 2.96153283e-05, -7.92551373e-05, -1.19241041, 0.000762864818, -0.00216142736, -3.55668856, 0.0139033297, -0.0441229678, 4.08511508, 0.0327170816, 0.0115928221, -1.58184468, 0.00292843271, 0.00137030705, -0.132408825, 0.00182262623, -0.00428613453, 0.00203289445, 0.0133683321, -0.0313655985, 0.0149522975, 0.0638540232, -0.14909207, 0.0718401534, 0.00440342642, 0.00241420302, -0.406849365, -0.000272588479, -0.000136680434, 0.00990385771, 0, 0, 0, 7.848, -0.406849365
1744895330.736154795, 3.11691233e-05, -8.3667276e-05, -1.19951549, 0.000790998341, -0.00225103771, -3.54839115, 0.0141688378, -0.0452952651, 4.14966884, 0.032904258, 0.0116224827, -1.59817908, 0.0029896446, 0.00140293243, -0.135588769, 0.00182262623, -0.00428613453, 0.00203289445, 0.0133683321, -0.0313655985, 0.0149522975, 0.0638540232, -0.14909207, 0.0718401534, 0.00440342642, 0.00241420302, -0.406849365, -0.000272588479, -0.000136680434, 0.00990385771, 0, 0, 0, 7.848, -0.406849365
1744895330.738097191, 3.27797141e-05, -8.82609874e-05, -1.20660385, 0.00081965999, -0.00234300349, -3.5399671, 0.0144317556, -0.0464780292, 4.21299465, 0.0330815974, 0.0116447476, -1.61419039, 0.00305107081, 0.00143590243, -0.138801057, 0.00182262623, -0.00428613453, 0.00203289445, 0.0133683321, -0.0313655985, 0.0149522975, 0.0638540232, -0.14909207, 0.0718401534, 0.00440342642, 0.00241420302, -0.406849365, -0.000272588479, -0.000136680434, 0.00990385771, 0, 0, 0, 7.848, -0.406849365
1744895330.740266085, 3.44481518e-05, -9.3041003e-05, -1.21367524, 0.000848844253, -0.00243734516, -3.53141884, 0.0146917766, -0.0476708464, 4.2751168, 0.0332491732, 0.0116597155, -1.62988184, 0.00311268945, 0.00146920498, -0.142045046, 0.00182262623, -0.00428613453, 0.00203289445, 0.0133683321, -0.0313655985, 0.0149522975, 0.0638540232, -0.14909207, 0.0718401534, 0.00440342642, 0.00241420302, -0.406849365, -0.000272588479, -0.000136680434, 0.00990385771, 0, 0, 0, 7.848, -0.406849365
1744895330.742129087, 3.44481518e-05, -9.3041003e-05, -1.21367524, 0.000848844253, -0.00243734516, -3.53141884, 0.0146917766, -0.0476708464, 4.2751168, 0.0332491732, 0.0116597155, -1.62988184, 0.00311268945, 0.00146920498, -0.142045046, 0.00182262623, -0.00428613453, 0.00203289445, 0.0133683321, -0.0313655985, 0.0149522975, 0.0638540232, -0.14909207, 0.0718401534, 0.00440342642, 0.00241420302, -0.406849365, -0.000272588479, -0.000136680434, 0.00990385771, 0, 0, 0, 7.848, -0.406849365
1744895330.744096279, 3.79627112e-05, -0.000103179071, -1.22776611, 0.000908755542, -0.00263323381, -3.51395904, 0.0152019245, -0.0500849715, 4.39584484, 0.0335553201, 0.0116681568, -1.66031796, 0.00323641749, 0.00153675982, -0.148625585, 0.00182262623, -0.00428613453, 0.00203289445, 0.0133683321, -0.0313655985, 0.0149522975, 0.0638540232, -0.14909207, 0.0718401534, 0.00440342642, 0.00241420302, -0.406849365, -0.000272588479, -0.000136680434, 0.00990385771, 0, 0, 0, 7.848, -0.406849365
1744895330.746469021, 3.98108718e-05, -0.000108546781, -1.23478513, 0.00093946854, -0.00273481754, -3.50505209, 0.0154514611, -0.051305439, 4.4544969, 0.0336940313, 0.011661829, -1.67506892, 0.00329848416, 0.00157098823, -0.151960882, 0.00257369821, -0.00604728173, 0.00287357331, 0.0167307482, -0.0392088951, 0.0187395863, 0.0705982257, -0.164524911, 0.0796077514, 0.00440342642, 0.00241420302, -0.406849365, -0.000284644605, -0.000148903906, 0.011052284, 0, 0, 0, 7.848, -0.406849365
1744895330.748113632, 4.17209541e-05, -0.000114120104, -1.24178621, 0.000970676114, -0.00283885062, -3.49603007, 0.0156969162, -0.0525342728, 4.51203768, 0.0338228692, 0.0116482084, -1.68949411, 0.0033606574, 0.00160550103, -0.155325353, 0.00257369821, -0.00604728173, 0.00287357331, 0.0167307482, -0.0392088951, 0.0187395863, 0.0705982257, -0.164524911, 0.0796077514, 0.00440342642, 0.00241420302, -0.406849365, -0.000284644605, -0.000148903906, 0.011052284, 0, 0, 0, 7.848, -0.444880892
1744895330.750263453, 4.36939389e-05, -0.000119903956, -1.24876914, 0.00100236979, -0.00294534929, -3.48689517, 0.0156969162, -0.0525342728, 4.51203768, 0.0338228692, 0.0116482084, -1.68949411, 0.00342291566, 0.00164028547, -0.15871835, 0.00257369821, -0.00604728173, 0.00287357331, 0.0167307482, -0.0392088951, 0.0187395863, 0.0705982257, -0.164524911, 0.0796077514, 0.00440342642, 0.00241420302, -0.406849365, -0.000284644605, -0.000148903906, 0.011052284, 0, 0, 0, 7.848, -0.444880892
1744895330.752141953, 4.57307896e-05, -0.000125903284, -1.25573368, 0.0010345405, -0.0030543289, -3.47764952, 0.0161744204, -0.0550152822, 4.62387272, 0.0340512, 0.0115995139, -1.71738017, 0.00348523756, 0.00167532889, -0.162139231, 0.00257369821, -0.00604728173, 0.00287357331, 0.0167307482, -0.0392088951, 0.0187395863, 0.0705982257, -0.164524911, 0.0796077514, 0.00440342642, 0.00241420302, -0.406849365, -0.000284644605, -0.000148903906, 0.011052284, 0, 0, 0, 7.848, -0.444880892
1744895330.754141092, 4.78324505e-05, -0.000132123064, -1.26267963, 0.00106717864, -0.00316580393, -3.46829522, 0.0164059038, -0.0562665749, 4.67820956, 0.0341508277, 0.0115646523, -1.73084746, 0.00354760195, 0.00171061865, -0.16558736, 0.00257369821, -0.00604728173, 0.00287357331, 0.0167307482, -0.0392088951, 0.0187395863, 0.0705982257, -0.164524911, 0.0796077514, 0.00440342642, 0.00241420302, -0.406849365, -0.000294067968, -0.000159787141, 0.0121365355, 0, 0, 0, 7.848, -0.444880892
1744895330.756137133, 4.99998466e-05, -0.000138568302, -1.26960676, 0.00110027403, -0.00327978796, -3.45883432, 0.0166321743, -0.057524468, 4.73152029, 0.0342408518, 0.0115229229, -1.74400181, 0.00360998791, 0.00174614215, -0.16906211, 0.00257369821, -0.00604728173, 0.00287357331, 0.0167307482, -0.0392088951, 0.0187395863, 0.0705982257, -0.164524911, 0.0796077514, 0.00440342642, 0.00241420302, -0.406849365, -0.000294067968, -0.000159787141, 0.0121365355, 0, 0, 0, 7.848, -0.444880892
1744895330.758138895, 5.22338816e-05, -0.000145244026, -1.27651486, 0.00113381596, -0.00339629369, -3.44926882, 0.0168529605, -0.0587885109, 4.78382515, 0.034321032, 0.0114740817, -1.75682887, 0.00367237442, 0.00178188647, -0.172562839, 0.00257369821, -0.00604728173, 0.00287357331, 0.0167307482, -0.0392088951, 0.0187395863, 0.0705982257, -0.164524911, 0.0796077514, 0.00440342642, 0.00241420302, -0.406849365, -0.000294067968, -0.000159787141, 0.0121365355, 0, 0, 0, 7.848, -0.444880892
1744895330.760152340, 5.45354375e-05, -0.000152155294, -1.28340373, 0.00116779317, -0.0035153329, -3.4396007, 0.0170679933, -0.0600582461, 4.83514397, 0.0343914335, 0.0114182405, -1.76933191, 0.00373474044, 0.00181783826, -0.176088897, 0.00257369821, -0.00604728173, 0.00287357331, 0.0167307482, -0.0392088951, 0.0187395863, 0.0705982257, -0.164524911, 0.0796077514, 0.0046134635, 0.0030349856, -0.444880892, -0.000294067968, -0.000159787141, 0.0121365355, 0, 0, 0, 7.848, -0.444880892
1744895330.762127876, 5.69053731e-05, -0.000159307182, -1.29027316, 0.00120219387, -0.00363691646, -3.4298319, 0.0172770105, -0.0613332148, 4.88549619, 0.0344521206, 0.011355511, -1.78151417, 0.00379706513, 0.00185398428, -0.179639638, 0.00257369821, -0.00604728173, 0.00287357331, 0.0167307482, -0.0392088951, 0.0187395863, 0.0705982257, -0.164524911, 0.0796077514, 0.0046134635, 0.0030349856, -0.444880892, -0.000294067968, -0.000159787141, 0.0121365355, 0, 0, 0, 7.848, -0.444880892
1744895330.764134645, 5.93445231e-05, -0.000166704791, -1.29712296, 0.00123700575, -0.00376105434, -3.4199643, 0.0174797574, -0.0626129573, 4.93490084, 0.0345031565, 0.0112860048, -1.79337885, 0.00385932786, 0.0018903113, -0.183214424, 0.00257369821, -0.00604728173, 0.00287357331, 0.0167307482, -0.0392088951, 0.0187395863, 0.0705982257, -0.164524911, 0.0796077514, 0.0046134635, 0.0030349856, -0.444880892, -8.66061139e-05, 0.00046398341, -0.0256377922, 0, 0, 0, 7.848, -0.444880892
1744895330.766124249, 6.18536973e-05, -0.000174353236, -1.30395293, 0.00127221602, -0.00388775555, -3.40999976, 0.0176759866, -0.0638970131, 4.9833766, 0.0345446037, 0.0112098329, -1.80492914, 0.00392150823, 0.00192680616, -0.186812624, 0.00257369821, -0.00604728173, 0.00287357331, 0.0167307482, -0.0392088951, 0.0187395863, 0.0705982257, -0.164524911, 0.0796077514, 0.0046134635, 0.0030349856, -0.444880892, -8.66061139e-05, 0.00046398341, -0.0256377922, 0, 0, 0, 7.848, -0.444880892
1744895330.768086672, 6.44336793e-05, -0.000182257654, -1.31076287, 0.00130781157, -0.00401702833, -3.39994011, 0.0178657393, -0.0651850789, 5.03094174, 0.0345832592, 0.0111471949, -1.81677743, 0.00398359155, 0.00196347827, -0.190434221, 0.00257369821, -0.00604728173, 0.00287357331, 0.0167307482, -0.0392088951, 0.0187395863, 0.0705982257, -0.164524911, 0.0796077514, 0.0046134635, 0.0030349856, -0.444880892, -8.66061139e-05, 0.00046398341, -0.0256377922, 0, 0, 0, 7.848, -0.444880892
1744895330.770105600, 6.70852268e-05, -0.000190423196, -1.31755259, 0.00134377975, -0.0041488805, -3.38978713, 0.018049342, -0.066477015, 5.07761419, 0.0346192036, 0.0110979334, -1.82892076, 0.00404556874, 0.00200035945, -0.194079808, 0.00257369821, -0.00604728173, 0.00287357331, 0.0167307482, -0.0392088951, 0.0187395863, 0.0705982257, -0.164524911, 0.0796077514, 0.0046134635, 0.0030349856, -0.444880892, -8.66061139e-05, 0.00046398341, -0.0256377922, 0, 0, 0, 7.848, -0.444880892
1744895330.772155046, 6.9809073e-05, -0.000198855028, -1.32432192, 0.00138010859, -0.00428331962, -3.37954257, 0.0182271222, -0.0677726904, 5.12341152, 0.0346525171, 0.0110618928, -1.84135617, 0.00410743068, 0.00203748126, -0.197749971, 0.00257369821, -0.00604728173, 0.00287357331, 0.0167307482, -0.0392088951, 0.0187395863, 0.0705982257, -0.164524911, 0.0796077514, 0.0046134635, 0.0030349856, -0.444880892, -8.66061139e-05, 0.00046398341, -0.0256377922, 0, 0, 0, 7.848, -0.444880892
1744895330.774135351, 7.26059279e-05, -0.00020755833, -1.33107068, 0.00141678676, -0.004420353, -3.36920814, 0.0183994083, -0.0690719825, 5.16835092, 0.0346832801, 0.0110389187, -1.85408073, 0.00416916822, 0.002074875, -0.201445293, 0.00257369821, -0.00604728173, 0.00287357331, 0.0167307482, -0.0392088951, 0.0187395863, 0.0705982257, -0.164524911, 0.0796077514, 0.0046134635, 0.0030349856, -0.444880892, -0.000300954454, -0.000165361483, 0.0133621564, 0, 0, 0, 7.848, -0.444880892
1744895330.776139259, 7.54764792e-05, -0.000216538299, -1.33779867, 0.00145380359, -0.00455998771, -3.35878552, 0.0185665289, -0.0703747771, 5.21244926, 0.0347115731, 0.0110288584, -1.86709156, 0.00423077219, 0.00211257169, -0.205166348, 0.00257369821, -0.00604728173, 0.00287357331, 0.0167307482, -0.0392088951, 0.0187395863, 0.0705982257, -0.164524911, 0.0796077514, 0.0046134635, 0.0030349856, -0.444880892, -0.000300954454, -0.000165361483, 0.0133621564, 0, 0, 0, 7.848, -0.444880892
1744895330.778138161, 7.84213941e-05, -0.000225800145, -1.34450573, 0.00149114888, -0.00470223051, -3.34827637, 0.0187285287, -0.0716807993, 5.25572307, 0.0347305171, 0.0110112939, -1.87975677, 0.00429222783, 0.00215057913, -0.208913077, 0.00257369821, -0.00604728173, 0.00287357331, 0.0167307482, -0.0392088951, 0.0187395863, 0.0705982257, -0.164524911, 0.0796077514, 0.0046134635, 0.0030349856, -0.444880892, -0.000300954454, -0.000165361483, 0.0133621564, 0, 0, 0, 7.848, -0.444880892
1744895330.780134678, 8.14413192e-05, -0.000235349088, -1.35119169, 0.00152881216, -0.00484708735, -3.3376823, 0.0188851727, -0.0729896073, 5.29818854, 0.0347401715, 0.0109863484, -1.8920798, 0.0043535149, 0.00218888201, -0.212684792, 0.00257369821, -0.00604728173, 0.00287357331, 0.0167307482, -0.0392088951, 0.0187395863, 0.0705982257, -0.164524911, 0.0796077514, 0.0046134635, 0.0030349856, -0.444880892, -0.000300954454, -0.000165361483, 0.0133621564, 0, 0, 0, 7.848, -0.444880892
1744895330.782133818, 8.45368795e-05, -0.000245190364, -1.35785638, 0.00156678248, -0.00499456334, -3.3270049, 0.0190362328, -0.0743007588, 5.33986155, 0.0347405949, 0.0109541444, -1.90406409, 0.00441461339, 0.0022274651, -0.216480812, 0.00257369821, -0.00604728173, 0.00287357331, 0.0167307482, -0.0392088951, 0.0187395863, 0.0705982257, -0.164524911, 0.0796077514, 0.0046134635, 0.0030349856, -0.444880892, -0.000300954454, -0.000165361483, 0.0133621564, 0, 0, 0, 7.848, -0.444880892
1744895330.784139156, 8.77086778e-05, -0.000255329214, -1.36449963, 0.00160504844, -0.00514466267, -3.31624571, 0.0191814891, -0.0756138113, 5.38075765, 0.0347318449, 0.0109148044, -1.91571301, 0.00447550349, 0.00226631322, -0.220300464, 0.00257369821, -0.00604728173, 0.00287357331, 0.0167307482, -0.0392088951, 0.0187395863, 0.0705982257, -0.164524911, 0.0796077514, 0.0046134635, 0.0030349856, -0.444880892, -0.000303576075, -0.00017606478, 0.0143635626, 0, 0, 0, 7.848, -0.444880892
1744895330.786104918, 9.09572936e-05, -0.000265770888, -1.37112128, 0.00164359822, -0.00529738867, -3.30540626, 0.0193207288, -0.0769283223, 5.42089208, 0.0347139782, 0.01086845, -1.92702993, 0.00453616562, 0.00230541127, -0.22414308, 0.00257369821, -0.00604728173, 0.00287357331, 0.0167307482, -0.0392088951, 0.0187395863, 0.0705982257, -0.164524911, 0.0796077514, 0.0046134635, 0.0030349856, -0.444880892, -0.000303576075, -0.00017606478, 0.0143635626, 0, 0, 0, 7.848, -0.444880892
1744895330.788138628, 9.42832823e-05, -0.000276520643, -1.37772118, 0.00168241957, -0.00545274378, -3.29448805, 0.0194537426, -0.0782438469, 5.46027978, 0.0346869656, 0.0108148582, -1.938002, 0.00459658037, 0.00234474377, -0.228007983, 0.00257369821, -0.00604728173, 0.00287357331, 0.0167307482, -0.0392088951, 0.0187395863, 0.0705982257, -0.164524911, 0.0796077514, 0.0046134635, 0.0030349856, -0.444880892, -0.000303576075, -0.00017606478, 0.0143635626, 0, 0, 0, 7.848, -0.444880892
1744895330.790095091, 9.76871746e-05, -0.000287583738, -1.38429916, 0.00172149983, -0.00561072954, -3.28349254, 0.0195803238, -0.0795599375, 5.49893539, 0.0346508614, 0.0107541546, -1.94863269, 0.00465672849, 0.0023842949, -0.231894487, 0.00257369821, -0.00604728173, 0.00287357331, 0.0167307482, -0.0392088951, 0.0187395863, 0.0705982257, -0.164524911, 0.0796077514, 0.0046134635, 0.0030349856, -0.444880892, -0.000303576075, -0.00017606478, 0.0143635626, 0, 0, 0, 7.848, -0.444880892
1744895330.792137623, 0.000101169475, -0.000298965436, -1.39085508, 0.00176082593, -0.0057713466, -3.27242115, 0.0197002745, -0.080876147, 5.53687325, 0.0346057195, 0.0106864645, -1.95892539, 0.00471659096, 0.0024240489, -0.235801913, 0.00257369821, -0.00604728173, 0.00287357331, 0.0167307482, -0.0392088951, 0.0187395863, 0.0705982257, -0.164524911, 0.0796077514, 0.0046134635, 0.0030349856, -0.444880892, -0.000303576075, -0.00017606478, 0.0143635626, 0, 0, 0, 7.848, -0.444880892
1744895330.794148207, 0.000104730662, -0.000310670998, -1.39738877, 0.00180038442, -0.00593459472, -3.26127531, 0.0198134047, -0.0821920284, 5.57410743, 0.0345515928, 0.0106119123, -1.9688835, 0.00477614897, 0.00246399009, -0.239729588, 0.00257369821, -0.00604728173, 0.00287357331, 0.0167307482, -0.0392088951, 0.0187395863, 0.0705982257, -0.164524911, 0.0796077514, 0.0046134635, 0.0030349856, -0.444880892, -0.000303899193, -0.00018625695, 0.0153260982, 0, 0, 0, 7.848, -0.444880892
1744895330.796112537, 0.000108371187, -0.000322705687, -1.40390011, 0.00184016147, -0.00610047276, -3.25005639, 0.0199195332, -0.0835071353, 5.61065169, 0.0344885338, 0.0105306221, -1.97851036, 0.00483538395, 0.00250410283, -0.243676847, 0.00350121057, -0.00821959843, 0.00391321726, 0.0204237405, -0.0478066681, 0.0229087305, 0.0770775765, -0.17927246, 0.0871148188, 0.0046134635, 0.0030349856, -0.444880892, -0.000303899193, -0.00018625695, 0.0153260982, 0, 0, 0, 7.848, -0.480989387
1744895330.798157215, 0.000112091473, -0.00033507476, -1.41038893, 0.0018801429, -0.0062689787, -3.23876573, 0.0200184822, -0.0848210204, 5.64651954, 0.0344165832, 0.0104423887, -1.98779376, 0.00489427754, 0.00254437118, -0.247643015, 0.00350121057, -0.00821959843, 0.00391321726, 0.0204237405, -0.0478066681, 0.0229087305, 0.0770775765, -0.17927246, 0.0871148188, 0.0046134635, 0.0030349856, -0.444880892, -0.000303899193, -0.00018625695, 0.0153260982, 0, 0, 0, 7.848, -0.480989387
1744895330.800095320, 0.000115891913, -0.000347783469, -1.4168551, 0.00192031417, -0.00644010961, -3.22740468, 0.0201100777, -0.0861332355, 5.68172421, 0.0343357907, 0.0103473393, -1.99673712, 0.00495281166, 0.00258477885, -0.251627408, 0.00350121057, -0.00821959843, 0.00391321726, 0.0204237405, -0.0478066681, 0.0229087305, 0.0770775765, -0.17927246, 0.0871148188, 0.0046134635, 0.0030349856, -0.444880892, -0.000303899193, -0.00018625695, 0.0153260982, 0, 0, 0, 7.848, -0.480989387
1744895330.802139521, 0.000119772873, -0.000360837062, -1.42329848, 0.0019606604, -0.00661386168, -3.21597452, 0.0201941545, -0.0874433331, 5.71627866, 0.0342462058, 0.0102455999, -2.00534386, 0.00501096845, 0.00262530963, -0.25562935, 0.00350121057, -0.00821959843, 0.00391321726, 0.0204237405, -0.0478066681, 0.0229087305, 0.0770775765, -0.17927246, 0.0871148188, 0.0046134635, 0.0030349856, -0.444880892, -0.000303899193, -0.00018625695, 0.0153260982, 0, 0, 0, 7.848, -0.480989387
1744895330.804165840, 0.000123734688, -0.000374240776, -1.42971893, 0.00200116641, -0.0067902302, -3.20447653, 0.0202705565, -0.0887508667, 5.7501956, 0.0341478774, 0.0101372961, -2.01361734, 0.00506873026, 0.00266594738, -0.259648172, 0.00350121057, -0.00821959843, 0.00391321726, 0.0204237405, -0.0478066681, 0.0229087305, 0.0770775765, -0.17927246, 0.0871148188, 0.0046134635, 0.0030349856, -0.444880892, -0.000301686622, -0.000194576534, 0.0162139294, 0, 0, 0, 7.848, -0.480989387
1744895330.806141615, 0.000127777661, -0.000387999839, -1.43611632, 0.00204181668, -0.00696920957, -3.19291197, 0.0203391363, -0.0900553907, 5.78348748, 0.0340408538, 0.0100225524, -2.02156088, 0.00512607966, 0.00270667605, -0.26368321, 0.00350121057, -0.00821959843, 0.00391321726, 0.0204237405, -0.0478066681, 0.0229087305, 0.0770775765, -0.17927246, 0.0871148188, 0.0046134635, 0.0030349856, -0.444880892, -0.000301686622, -0.000194576534, 0.0162139294, 0, 0, 0, 7.848, -0.480989387
1744895330.808137178, 0.000131902066, -0.000402119465, -1.44249052, 0.00208259544, -0.00715079329, -3.18128205, 0.0203997513, -0.0913564604, 5.81616651, 0.033925254, 0.0099012245, -2.02916348, 0.00518299956, 0.00274747932, -0.267733792, 0.00350121057, -0.00821959843, 0.00391321726, 0.0204237405, -0.0478066681, 0.0229087305, 0.0770775765, -0.17927246, 0.0871148188, 0.0046134635, 0.0030349856, -0.444880892, -0.000301686622, -0.000194576534, 0.0162139294, 0, 0, 0, 7.848, -0.480989387
1744895330.810143948, 0.000136108143, -0.000416604856, -1.44884139, 0.00212348662, -0.007334974, -3.16958798, 0.0204522635, -0.0926536325, 5.84824464, 0.0338011235, 0.00977343876, -2.03642853, 0.00523947318, 0.0027883406, -0.271799242, 0.00350121057, -0.00821959843, 0.00391321726, 0.0204237405, -0.0478066681, 0.0229087305, 0.0770775765, -0.17927246, 0.0871148188, 0.00470713422, 0.00380340125, -0.480989387, -0.000301686622, -0.000194576534, 0.0162139294, 0, 0, 0, 7.848, -0.480989387
1744895330.812163830, 0.000140396102, -0.000431461199, -1.45516881, 0.00216447387, -0.00752174342, -3.15783093, 0.020496544, -0.0939464647, 5.8797336, 0.0336685079, 0.00963932048, -2.04335942, 0.00529548398, 0.0028292434, -0.275878888, 0.00350121057, -0.00821959843, 0.00391321726, 0.0204237405, -0.0478066681, 0.0229087305, 0.0770775765, -0.17927246, 0.0871148188, 0.00470713422, 0.00380340125, -0.480989387, -0.000301686622, -0.000194576534, 0.0162139294, 0, 0, 0, 7.848, -0.480989387
1744895330.814134836, 0.000144766116, -0.000446693661, -1.46147265, 0.00220554062, -0.00771109242, -3.14601207, 0.0205324731, -0.0952345162, 5.91064486, 0.0335274521, 0.00949899406, -2.04995948, 0.00535101564, 0.00287017131, -0.279972063, 0.00350121057, -0.00821959843, 0.00391321726, 0.0204237405, -0.0478066681, 0.0229087305, 0.0770775765, -0.17927246, 0.0871148188, 0.00470713422, 0.00380340125, -0.480989387, -0.000201492288, 0.000582856325, -0.0198049502, 0, 0, 0, 7.848, -0.480989387
1744895330.816157103, 0.00014921833, -0.000462307392, -1.4677528, 0.00224667006, -0.00790301097, -3.13413252, 0.0205599404, -0.0965173475, 5.94098968, 0.0333780013, 0.00935258289, -2.05623203, 0.00540605205, 0.00291110799, -0.284078111, 0.00350121057, -0.00821959843, 0.00391321726, 0.0204237405, -0.0478066681, 0.0229087305, 0.0770775765, -0.17927246, 0.0871148188, 0.00470713422, 0.00380340125, -0.480989387, -0.000201492288, 0.000582856325, -0.0198049502, 0, 0, 0, 7.848, -0.480989387
1744895330.818135262, 0.00015375285, -0.00047830752, -1.47400912, 0.00228784539, -0.00809748829, -3.12219339, 0.0205792164, -0.0977946855, 5.9707791, 0.0332234892, 0.00922526182, -2.06276129, 0.00546057883, 0.00295206544, -0.28819696, 0.00350121057, -0.00821959843, 0.00391321726, 0.0204237405, -0.0478066681, 0.0229087305, 0.0770775765, -0.17927246, 0.0871148188, 0.00470713422, 0.00380340125, -0.480989387, -0.000201492288, 0.000582856325, -0.0198049502, 0, 0, 0, 7.848, -0.480989387
1744895330.820129871, 0.000158369754, -0.000494699152, -1.48024151, 0.0023290509, -0.00829451326, -3.11019578, 0.0205909472, -0.0990664309, 6.00002391, 0.0330640417, 0.00911684952, -2.06954469, 0.00551458325, 0.00299308374, -0.292329122, 0.00350121057, -0.00821959843, 0.00391321726, 0.0204237405, -0.0478066681, 0.0229087305, 0.0770775765, -0.17927246, 0.0871148188, 0.00470713422, 0.00380340125, -0.480989387, -0.000201492288, 0.000582856325, -0.0198049502, 0, 0, 0, 7.848, -0.480989387
1744895330.822132349, 0.000163069087, -0.000511487372, -1.48644985, 0.00237027214, -0.00849407459, -3.09814074, 0.0205957771, -0.100332497, 6.0287347, 0.0328997839, 0.00902716667, -2.07657969, 0.00556805263, 0.00303420257, -0.296475101, 0.00350121057, -0.00821959843, 0.00391321726, 0.0204237405, -0.0478066681, 0.0229087305, 0.0770775765, -0.17927246, 0.0871148188, 0.00470713422, 0.00380340125, -0.480989387, -0.000201492288, 0.000582856325, -0.0198049502, 0, 0, 0, 7.848, -0.480989387
1744895330.824114561, 0.000167850866, -0.000528677241, -1.49263402, 0.00241149596, -0.00869616084, -3.08602934, 0.0205943483, -0.10159281, 6.05692186, 0.0327308406, 0.00895603589, -2.08386377, 0.0056209743, 0.00307546124, -0.300635398, 0.00350121057, -0.00821959843, 0.00391321726, 0.0204237405, -0.0478066681, 0.0229087305, 0.0770775765, -0.17927246, 0.0871148188, 0.00470713422, 0.00380340125, -0.480989387, -0.000288235458, -0.000190731134, 0.0170562549, 0, 0, 0, 7.848, -0.480989387
1744895330.826131582, 0.000172715086, -0.000546273796, -1.49879391, 0.00245271049, -0.00890076042, -3.07386259, 0.0205873012, -0.10284731, 6.08459556, 0.0325573355, 0.00890328177, -2.09139445, 0.00567333563, 0.0031168987, -0.304810509, 0.00350121057, -0.00821959843, 0.00391321726, 0.0204237405, -0.0478066681, 0.0229087305, 0.0770775765, -0.17927246, 0.0871148188, 0.00470713422, 0.00380340125, -0.480989387, -0.000288235458, -0.000190731134, 0.0170562549, 0, 0, 0, 7.848, -0.480989387
1744895330.828091621, 0.000177661716, -0.000564282055, -1.50492942, 0.00249390488, -0.00910786152, -3.0616415, 0.0205749016, -0.10409578, 6.11176575, 0.0323765367, 0.00884380163, -2.09857472, 0.00572512311, 0.00315852518, -0.309000329, 0.00350121057, -0.00821959843, 0.00391321726, 0.0204237405, -0.0478066681, 0.0229087305, 0.0770775765, -0.17927246, 0.0871148188, 0.00470713422, 0.00380340125, -0.480989387, -0.000288235458, -0.000190731134, 0.0170562549, 0, 0, 0, 7.848, -0.480989387
1744895330.830132246, 0.000182690705, -0.000582707006, -1.51104043, 0.00253506834, -0.00931745171, -3.04936705, 0.0205570475, -0.105337845, 6.13844222, 0.0321884801, 0.00877772365, -2.10540809, 0.00577632242, 0.00320032243, -0.313204162, 0.00350121057, -0.00821959843, 0.00391321726, 0.0204237405, -0.0478066681, 0.0229087305, 0.0770775765, -0.17927246, 0.0871148188, 0.00470713422, 0.00380340125, -0.480989387, -0.000288235458, -0.000190731134, 0.0170562549, 0, 0, 0, 7.848, -0.480989387
1744895330.832083941, 0.000187801981, -0.000601553615, -1.51712684, 0.00257618988, -0.00952951777, -3.03704023, 0.0205336449, -0.106573131, 6.16463454, 0.0319932017, 0.00870517488, -2.11189803, 0.00582691945, 0.00324227231, -0.317421318, 0.00350121057, -0.00821959843, 0.00391321726, 0.0204237405, -0.0478066681, 0.0229087305, 0.0770775765, -0.17927246, 0.0871148188, 0.00470713422, 0.00380340125, -0.480989387, -0.000288235458, -0.000190731134, 0.0170562549, 0, 0, 0, 7.848, -0.480989387
1744895330.834127188, 0.000192995449, -0.00062082682, -1.52318854, 0.00261725832, -0.00974404578, -3.02466197, 0.0205046081, -0.107801264, 6.19035208, 0.0317907369, 0.00862628119, -2.11804796, 0.0058769003, 0.00328435678, -0.321651113, 0.00350121057, -0.00821959843, 0.00391321726, 0.0204237405, -0.0478066681, 0.0229087305, 0.0770775765, -0.17927246, 0.0871148188, 0.00470713422, 0.00380340125, -0.480989387, -0.000279321321, -0.000198514653, 0.0178289494, 0, 0, 0, 7.848, -0.480989387
1744895330.836160898, 0.000198270991, -0.00064053153, -1.52922543, 0.00265826231, -0.00996102104, -3.0122332, 0.0204698599, -0.109021875, 6.21560405, 0.0315811212, 0.00854116727, -2.12386129, 0.00592625127, 0.00332655792, -0.32589287, 0.00350121057, -0.00821959843, 0.00391321726, 0.0204237405, -0.0478066681, 0.0229087305, 0.0770775765, -0.17927246, 0.0871148188, 0.00470713422, 0.00380340125, -0.480989387, -0.000279321321, -0.000198514653, 0.0178289494, 0, 0, 0, 7.848, -0.480989387
1744895330.838151932, 0.000203628466, -0.000660672625, -1.53523742, 0.00269919037, -0.0101804281, -2.99975484, 0.0204293256, -0.110234596, 6.24039945, 0.0313646767, 0.00844970528, -2.12932893, 0.00597495921, 0.00336885758, -0.330145908, 0.00350121057, -0.00821959843, 0.00391321726, 0.0204237405, -0.0478066681, 0.0229087305, 0.0770775765, -0.17927246, 0.0871148188, 0.00470713422, 0.00380340125, -0.480989387, -0.000279321321, -0.000198514653, 0.0178289494, 0, 0, 0, 7.848, -0.480989387
1744895330.840143442, 0.000209067712, -0.000681254951, -1.54122441, 0.00274003087, -0.0104022509, -2.98722779, 0.0203829337, -0.111439067, 6.26474713, 0.0311414343, 0.00835201957, -2.13445432, 0.00602301149, 0.00341123739, -0.334409538, 0.00350121057, -0.00821959843, 0.00391321726, 0.0204237405, -0.0478066681, 0.0229087305, 0.0770775765, -0.17927246, 0.0871148188, 0.00470713422, 0.00380340125, -0.480989387, -0.000279321321, -0.000198514653, 0.0178289494, 0, 0, 0, 7.848, -0.480989387
1744895330.842090607, 0.000214588541, -0.000702283325, -1.54718629, 0.00278077203, -0.0106264725, -2.97465292, 0.0203306208, -0.112634929, 6.28865572, 0.030911425, 0.00824823319, -2.1392409, 0.00607039567, 0.00345367912, -0.33868308, 0.00350121057, -0.00821959843, 0.00391321726, 0.0204237405, -0.0478066681, 0.0229087305, 0.0770775765, -0.17927246, 0.0871148188, 0.00470713422, 0.00380340125, -0.480989387, -0.000279321321, -0.000198514653, 0.0178289494, 0, 0, 0, 7.848, -0.480989387
1744895330.844128132, 0.000220190743, -0.000723762525, -1.55312297, 0.00282140195, -0.0108530753, -2.96203109, 0.0202723315, -0.113821824, 6.31213372, 0.0306746794, 0.00813846791, -2.14369205, 0.00611709953, 0.00349616462, -0.342965859, 0.00350121057, -0.00821959843, 0.00391321726, 0.0204237405, -0.0478066681, 0.0229087305, 0.0770775765, -0.17927246, 0.0871148188, 0.00470713422, 0.00380340125, -0.480989387, -0.000268398534, -0.000205663104, 0.0185542759, 0, 0, 0, 7.848, -0.480989387
1744895330.846132994, 0.000225874084, -0.000745697297, -1.55903437, 0.00286190866, -0.0110820411, -2.94936315, 0.020208019, -0.114999398, 6.33518944, 0.0304312284, 0.00802284419, -2.14781112, 0.00616311103, 0.00353867589, -0.347257209, 0.00462136233, -0.0108399552, 0.00517059455, 0.0244341425, -0.0571248527, 0.0274467704, 0.0832951236, -0.193342706, 0.0943640243, 0.00470713422, 0.00380340125, -0.480989387, -0.000268398534, -0.000205663104, 0.0185542759, 0, 0, 0, 7.848, -0.515270603
1744895330.848135710, 0.000231638304, -0.000768092347, -1.56492038, 0.00290228006, -0.0113133508, -2.93664992, 0.0201376387, -0.1161673, 6.35783101, 0.0301814545, 0.0079012502, -2.15158974, 0.00620841876, 0.00358119474, -0.351556456, 0.00462136233, -0.0108399552, 0.00517059455, 0.0244341425, -0.0571248527, 0.0274467704, 0.0832951236, -0.193342706, 0.0943640243, 0.00470713422, 0.00380340125, -0.480989387, -0.000268398534, -0.000205663104, 0.0185542759, 0, 0, 0, 7.848, -0.515270603
1744895330.850127220, 0.000237483122, -0.000790952343, -1.57078093, 0.00294250399, -0.0115469848, -2.92389222, 0.0200611486, -0.11732519, 6.38006644, 0.0299253838, 0.00777380527, -2.15503131, 0.00625301185, 0.00362370278, -0.355862924, 0.00462136233, -0.0108399552, 0.00517059455, 0.0244341425, -0.0571248527, 0.0274467704, 0.0832951236, -0.193342706, 0.0943640243, 0.00470713422, 0.00380340125, -0.480989387, -0.000268398534, -0.000205663104, 0.0185542759, 0, 0, 0, 7.848, -0.515270603
1744895330.852140903, 0.00024340823, -0.000814281914, -1.57661591, 0.00298256819, -0.0117829226, -2.91109085, 0.0199785147, -0.118472725, 6.40190353, 0.0296630427, 0.00764062735, -2.15813921, 0.00629687966, 0.00366618177, -0.360175941, 0.00462136233, -0.0108399552, 0.00517059455, 0.0244341425, -0.0571248527, 0.0274467704, 0.0832951236, -0.193342706, 0.0943640243, 0.00470713422, 0.00380340125, -0.480989387, -0.000268398534, -0.000205663104, 0.0185542759, 0, 0, 0, 7.848, -0.515270603
1744895330.854292393, 0.00024340823, -0.000814281914, -1.57661591, 0.00298256819, -0.0117829226, -2.91109085, 0.0199785147, -0.118472725, 6.40190353, 0.0296630427, 0.00764062735, -2.15813921, 0.00629687966, 0.00366618177, -0.360175941, 0.00462136233, -0.0108399552, 0.00517059455, 0.0244341425, -0.0571248527, 0.0274467704, 0.0832951236, -0.193342706, 0.0943640243, 0.00470713422, 0.00380340125, -0.480989387, -0.000268398534, -0.000205663104, 0.0185542759, 0, 0, 0, 7.848, -0.515270603
1744895330.856288671, 0.00024340823, -0.000814281914, -1.57661591, 0.00298256819, -0.0117829226, -2.91109085, 0.0199785147, -0.118472725, 6.40190353, 0.0296630427, 0.00764062735, -2.15813921, 0.00629687966, 0.00366618177, -0.360175941, 0.00462136233, -0.0108399552, 0.00517059455, 0.0244341425, -0.0571248527, 0.0274467704, 0.0832951236, -0.193342706, 0.0943640243, 0.00470713422, 0.00380340125, -0.480989387, -0.000268398534, -0.000205663104, 0.0185542759, 0, 0, 0, 7.848, -0.515270603
1744895330.858167410, 0.00024340823, -0.000814281914, -1.57661591, 0.00298256819, -0.0117829226, -2.91109085, 0.0199785147, -0.118472725, 6.40190353, 0.0296630427, 0.00764062735, -2.15813921, 0.00629687966, 0.00366618177, -0.360175941, 0.00462136233, -0.0108399552, 0.00517059455, 0.0244341425, -0.0571248527, 0.0274467704, 0.0832951236, -0.193342706, 0.0943640243, 0.00470713422, 0.00380340125, -0.480989387, -0.000268398534, -0.000205663104, 0.0185542759, 0, 0, 0, 7.848, -0.515270603
1744895330.860860348, 0.00024340823, -0.000814281914, -1.57661591, 0.00298256819, -0.0117829226, -2.91109085, 0.0199785147, -0.118472725, 6.40190353, 0.0296630427, 0.00764062735, -2.15813921, 0.00629687966, 0.00366618177, -0.360175941, 0.00462136233, -0.0108399552, 0.00517059455, 0.0244341425, -0.0571248527, 0.0274467704, 0.0832951236, -0.193342706, 0.0943640243, 0.00470713422, 0.00380340125, -0.480989387, -0.000268398534, -0.000205663104, 0.0185542759, 0, 0, 0, 7.848, -0.515270603
1744895330.862139940, 0.000274225642, -0.000938132402, -1.60540447, 0.00318006132, -0.0129964098, -2.84645564, 0.019472482, -0.124043406, 6.50537706, 0.0282606676, 0.00689182553, -2.16872714, 0.00650498648, 0.00387750816, -0.381816126, 0.00462136233, -0.0108399552, 0.00517059455, 0.0244341425, -0.0571248527, 0.0274467704, 0.0832951236, -0.193342706, 0.0943640243, 0.00468350582, 0.00467022774, -0.515270603, -0.000255569762, -0.000210553214, 0.0191990948, 0, 0, 0, 7.848, -0.515270603
1744895330.864088535, 0.000280624657, -0.000964374201, -1.61108433, 0.00321890755, -0.0132457057, -2.83340809, 0.019352632, -0.125121879, 6.52497991, 0.0279628865, 0.00672601751, -2.1698609, 0.00654429685, 0.00391943333, -0.386154566, 0.00462136233, -0.0108399552, 0.00517059455, 0.0244341425, -0.0571248527, 0.0274467704, 0.0832951236, -0.193342706, 0.0943640243, 0.00468350582, 0.00467022774, -0.515270603, -0.000265129339, 0.00067102263, -0.0152038158, 0, 0, 0, 7.848, -0.515270603
1744895330.866132021, 0.000287101121, -0.000991116738, -1.61673806, 0.00325750731, -0.0134971443, -2.82032203, 0.0192265736, -0.126187726, 6.54423498, 0.0276594169, 0.006555106, -2.17067366, 0.00658281675, 0.00396120339, -0.390494953, 0.00462136233, -0.0108399552, 0.00517059455, 0.0244341425, -0.0571248527, 0.0274467704, 0.0832951236, -0.193342706, 0.0943640243, 0.00468350582, 0.00467022774, -0.515270603, -0.000265129339, 0.00067102263, -0.0152038158, 0, 0, 0, 7.848, -0.515270603
1744895330.868132591, 0.000293654527, -0.00101836427, -1.62236558, 0.00329584852, -0.0137507002, -2.80719814, 0.0190947621, -0.127240815, 6.56314893, 0.0273500387, 0.0064076212, -2.17172351, 0.00662053538, 0.00400283281, -0.394837205, 0.00462136233, -0.0108399552, 0.00517059455, 0.0244341425, -0.0571248527, 0.0274467704, 0.0832951236, -0.193342706, 0.0943640243, 0.00468350582, 0.00467022774, -0.515270603, -0.000265129339, 0.00067102263, -0.0152038158, 0, 0, 0, 7.848, -0.515270603
1744895330.870132685, 0.000300284348, -0.00104612102, -1.62796682, 0.00333392057, -0.014006348, -2.79403708, 0.0189580908, -0.128281199, 6.58172827, 0.027034908, 0.00628335529, -2.17300809, 0.00665743954, 0.004044368, -0.399181791, 0.00462136233, -0.0108399552, 0.00517059455, 0.0244341425, -0.0571248527, 0.0274467704, 0.0832951236, -0.193342706, 0.0943640243, 0.00468350582, 0.00467022774, -0.515270603, -0.000265129339, 0.00067102263, -0.0152038158, 0, 0, 0, 7.848, -0.515270603
1744895330.872096062, 0.000306990036, -0.00107439112, -1.6335417, 0.00337171464, -0.0142640623, -2.78083952, 0.0188174464, -0.129308949, 6.59997941, 0.0267141793, 0.00618210256, -2.17452504, 0.00669351611, 0.00408585492, -0.40352918, 0.00462136233, -0.0108399552, 0.00517059455, 0.0244341425, -0.0571248527, 0.0274467704, 0.0832951236, -0.193342706, 0.0943640243, 0.00468350582, 0.00467022774, -0.515270603, -0.000265129339, 0.00067102263, -0.0152038158, 0, 0, 0, 7.848, -0.515270603
1744895330.874146938, 0.000313771028, -0.00110317871, -1.63909014, 0.00340922368, -0.0145238179, -2.76760609, 0.0186737088, -0.130324147, 6.61790858, 0.0263880057, 0.00610365947, -2.17627205, 0.00672875201, 0.00412733907, -0.407879834, 0.00462136233, -0.0108399552, 0.00517059455, 0.0244341425, -0.0571248527, 0.0274467704, 0.0832951236, -0.193342706, 0.0943640243, 0.00468350582, 0.00467022774, -0.515270603, -0.000225360087, -0.000197047961, 0.0195774527, 0, 0, 0, 7.848, -0.515270603
1744895330.876154423, 0.000320626748, -0.00113248782, -1.64461209, 0.00344644238, -0.0147855899, -2.75433743, 0.0185277509, -0.131326895, 6.63552195, 0.026056539, 0.00604782461, -2.17824681, 0.00676313426, 0.00416886549, -0.412234209, 0.00462136233, -0.0108399552, 0.00517059455, 0.0244341425, -0.0571248527, 0.0274467704, 0.0832951236, -0.193342706, 0.0943640243, 0.00468350582, 0.00467022774, -0.515270603, -0.000225360087, -0.000197047961, 0.0195774527, 0, 0, 0, 7.848, -0.515270603
1744895330.878140926, 0.000327556613, -0.00116232247, -1.65010746, 0.00348336689, -0.0150493533, -2.74103416, 0.0183800019, -0.132317136, 6.6528255, 0.0257211484, 0.00598640819, -2.17988606, 0.00679665357, 0.00421044699, -0.416592198, 0.00462136233, -0.0108399552, 0.00517059455, 0.0244341425, -0.0571248527, 0.0274467704, 0.0832951236, -0.193342706, 0.0943640243, 0.00468350582, 0.00467022774, -0.515270603, -0.000225360087, -0.000197047961, 0.0195774527, 0, 0, 0, 7.848, -0.515270603
1744895330.880095005, 0.000334560028, -0.00119268662, -1.65557619, 0.00351999363, -0.0153150829, -2.72769688, 0.0182304548, -0.133294651, 6.66982515, 0.0253818421, 0.00591951618, -2.18119315, 0.00682930443, 0.00425206444, -0.420953134, 0.00462136233, -0.0108399552, 0.00517059455, 0.0244341425, -0.0571248527, 0.0274467704, 0.0832951236, -0.193342706, 0.0943640243, 0.00468350582, 0.00467022774, -0.515270603, -0.000225360087, -0.000197047961, 0.0195774527, 0, 0, 0, 7.848, -0.515270603
1744895330.882145405, 0.000341636397, -0.00122358417, -1.66101821, 0.00355631902, -0.015582753, -2.7143262, 0.0180791086, -0.134259223, 6.68652667, 0.0250386288, 0.005847253, -2.1821714, 0.00686108147, 0.00429369885, -0.425316356, 0.00462136233, -0.0108399552, 0.00517059455, 0.0244341425, -0.0571248527, 0.0274467704, 0.0832951236, -0.193342706, 0.0943640243, 0.00468350582, 0.00467022774, -0.515270603, -0.000225360087, -0.000197047961, 0.0195774527, 0, 0, 0, 7.848, -0.515270603
1744895330.884133101, 0.000348785111, -0.00125501898, -1.66643346, 0.00359233946, -0.0158523376, -2.70092269, 0.0179259681, -0.135210636, 6.70293572, 0.0246915174, 0.00576972153, -2.18282411, 0.0068919795, 0.00433533142, -0.429681209, 0.00462136233, -0.0108399552, 0.00517059455, 0.0244341425, -0.0571248527, 0.0274467704, 0.0832951236, -0.193342706, 0.0943640243, 0.00468350582, 0.00467022774, -0.515270603, -0.000207396961, -0.000201294425, 0.0200895873, 0, 0, 0, 7.848, -0.515270603
1744895330.886097193, 0.000356005559, -0.00128699486, -1.67182187, 0.00362805141, -0.0161238101, -2.68748693, 0.017771044, -0.136148677, 6.71905786, 0.0243405168, 0.00568702313, -2.18315452, 0.00692199346, 0.00437694348, -0.434047046, 0.00462136233, -0.0108399552, 0.00517059455, 0.0244341425, -0.0571248527, 0.0274467704, 0.0832951236, -0.193342706, 0.0943640243, 0.00468350582, 0.00467022774, -0.515270603, -0.000207396961, -0.000201294425, 0.0200895873, 0, 0, 0, 7.848, -0.515270603
1744895330.888134718, 0.000363297118, -0.00131951554, -1.67718338, 0.0036634513, -0.0163971436, -2.67401948, 0.0176143462, -0.137073142, 6.73489851, 0.0239862156, 0.00559911956, -2.1831576, 0.00695111906, 0.00441851634, -0.438413217, 0.00462136233, -0.0108399552, 0.00517059455, 0.0244341425, -0.0571248527, 0.0274467704, 0.0832951236, -0.193342706, 0.0943640243, 0.00468350582, 0.00467022774, -0.515270603, -0.000207396961, -0.000201294425, 0.0200895873, 0, 0, 0, 7.848, -0.515270603
1744895330.890148640, 0.000370659163, -0.00135258472, -1.68251792, 0.0036985356, -0.0166723107, -2.6605209, 0.0174558843, -0.137983838, 6.75046302, 0.0236286168, 0.00550610834, -2.18283663, 0.00697935278, 0.00446003129, -0.442779071, 0.00462136233, -0.0108399552, 0.00517059455, 0.0244341425, -0.0571248527, 0.0274467704, 0.0832951236, -0.193342706, 0.0943640243, 0.00468350582, 0.00467022774, -0.515270603, -0.000207396961, -0.000201294425, 0.0200895873, 0, 0, 0, 7.848, -0.515270603
1744895330.892140627, 0.000378091057, -0.00138620606, -1.68782544, 0.00373330083, -0.0169492838, -2.64699173, 0.017295673, -0.138880571, 6.7657566, 0.0232677239, 0.00540808544, -2.18219484, 0.00700669124, 0.00450146979, -0.447143963, 0.00462136233, -0.0108399552, 0.00517059455, 0.0244341425, -0.0571248527, 0.0274467704, 0.0832951236, -0.193342706, 0.0943640243, 0.00468350582, 0.00467022774, -0.515270603, -0.000207396961, -0.000201294425, 0.0200895873, 0, 0, 0, 7.848, -0.515270603
1744895330.894142389, 0.00038559216, -0.00142038312, -1.69310586, 0.0037677435, -0.0172280346, -2.63343249, 0.0171337325, -0.139763152, 6.78078436, 0.0229035407, 0.00530514531, -2.18123545, 0.00703313119, 0.00454281345, -0.451507255, 0.00462136233, -0.0108399552, 0.00517059455, 0.0244341425, -0.0571248527, 0.0274467704, 0.0832951236, -0.193342706, 0.0943640243, 0.00468350582, 0.00467022774, -0.515270603, -0.000188144194, -0.000204933744, 0.0205507793, 0, 0, 0, 7.848, -0.515270603
1744895330.896135092, 0.000393161822, -0.00145511943, -1.69835914, 0.00380186019, -0.0175085348, -2.61984371, 0.016970088, -0.140631391, 6.79555134, 0.0225360714, 0.00519738084, -2.17996162, 0.00705866953, 0.00458404407, -0.455868315, 0.005949698, -0.0139435292, 0.00666382872, 0.0287489403, -0.0671297834, 0.0323408797, 0.0892539148, -0.206743639, 0.101358037, 0.00468350582, 0.00467022774, -0.515270603, -0.000188144194, -0.000204933744, 0.0205507793, 0, 0, 0, 7.848, -0.547815495
1744895330.898145437, 0.000400799389, -0.00149041847, -1.70358521, 0.00383564753, -0.0177907554, -2.6062259, 0.0168047636, -0.14148511, 6.81006244, 0.0221659414, 0.00508476485, -2.17836907, 0.00708330394, 0.00462514344, -0.460226511, 0.005949698, -0.0139435292, 0.00666382872, 0.0287489403, -0.0671297834, 0.0323408797, 0.0892539148, -0.206743639, 0.101358037, 0.00468350582, 0.00467022774, -0.515270603, -0.000188144194, -0.000204933744, 0.0205507793, 0, 0, 0, 7.848, -0.547815495
1744895330.900152445, 0.000408504198, -0.00152628365, -1.70878401, 0.00386910219, -0.0180746674, -2.59257957, 0.0166377819, -0.142324142, 6.82432248, 0.0217931487, 0.00496738598, -2.17646097, 0.00710703289, 0.00466609336, -0.464581207, 0.005949698, -0.0139435292, 0.00666382872, 0.0287489403, -0.0671297834, 0.0323408797, 0.0892539148, -0.206743639, 0.101358037, 0.00468350582, 0.00467022774, -0.515270603, -0.000188144194, -0.000204933744, 0.0205507793, 0, 0, 0, 7.848, -0.547815495
1744895330.902140141, 0.000416275582, -0.00156271831, -1.7139555, 0.00390222089, -0.018360241, -2.5789052, 0.0164691701, -0.143148319, 6.83833619, 0.0214176921, 0.00484533138, -2.1742405, 0.00712985497, 0.00470687583, -0.468931776, 0.005949698, -0.0139435292, 0.00666382872, 0.0287489403, -0.0671297834, 0.0323408797, 0.0892539148, -0.206743639, 0.101358037, 0.00468350582, 0.00467022774, -0.515270603, -0.000188144194, -0.000204933744, 0.0205507793, 0, 0, 0, 7.848, -0.547815495
1744895330.904147387, 0.000424112863, -0.00159972576, -1.71909961, 0.00393500041, -0.0186474466, -2.56520327, 0.0162989601, -0.143957477, 6.85210818, 0.0210395706, 0.00471868667, -2.17171076, 0.0071517689, 0.00474747299, -0.473277597, 0.005949698, -0.0139435292, 0.00666382872, 0.0287489403, -0.0671297834, 0.0323408797, 0.0892539148, -0.206743639, 0.101358037, 0.00468350582, 0.00467022774, -0.515270603, -0.000168002973, -0.000206204445, 0.0209304813, 0, 0, 0, 7.848, -0.547815495
1744895330.906144619, 0.000432015362, -0.00163730923, -1.72421629, 0.0039674376, -0.0189362538, -2.55147427, 0.0161271886, -0.144751452, 6.86564299, 0.0206587839, 0.00458753599, -2.16887486, 0.00717277351, 0.00478786718, -0.477618054, 0.005949698, -0.0139435292, 0.00666382872, 0.0287489403, -0.0671297834, 0.0323408797, 0.0892539148, -0.206743639, 0.101358037, 0.00468350582, 0.00467022774, -0.515270603, -0.000168002973, -0.000206204445, 0.0209304813, 0, 0, 0, 7.848, -0.547815495
1744895330.908142090, 0.00043998239, -0.00167547189, -1.72930548, 0.00399952938, -0.0192266322, -2.53771866, 0.0159538908, -0.145530092, 6.87894507, 0.0202759815, 0.00445191968, -2.16572973, 0.00719286842, 0.00482804084, -0.481952531, 0.005949698, -0.0139435292, 0.00666382872, 0.0287489403, -0.0671297834, 0.0323408797, 0.0892539148, -0.206743639, 0.101358037, 0.00468350582, 0.00467022774, -0.515270603, -0.000168002973, -0.000206204445, 0.0209304813, 0, 0, 0, 7.848, -0.547815495
1744895330.910141945, 0.000448013254, -0.00171421685, -1.73436714, 0.00403127274, -0.019518551, -2.5239369, 0.0157791005, -0.146293255, 6.89201878, 0.0198911573, 0.00431191672, -2.16227846, 0.00721205407, 0.00486797651, -0.486280415, 0.005949698, -0.0139435292, 0.00666382872, 0.0287489403, -0.0671297834, 0.0323408797, 0.0892539148, -0.206743639, 0.101358037, 0.00446788205, 0.0056498394, -0.547815495, -0.000168002973, -0.000206204445, 0.0209304813, 0, 0, 0, 7.848, -0.547815495
1744895330.912159204, 0.000456107254, -0.00175354716, -1.7394012, 0.00406266474, -0.0198119791, -2.51012942, 0.0156028557, -0.147040803, 6.90486837, 0.0195043058, 0.00416760463, -2.15852412, 0.00723033096, 0.0049076569, -0.490601095, 0.005949698, -0.0139435292, 0.00666382872, 0.0287489403, -0.0671297834, 0.0323408797, 0.0892539148, -0.206743639, 0.101358037, 0.00446788205, 0.0056498394, -0.547815495, -0.000168002973, -0.000206204445, 0.0209304813, 0, 0, 0, 7.848, -0.547815495
1744895330.914143085, 0.000464263683, -0.00179346581, -1.74440763, 0.00409370252, -0.0201068851, -2.49629668, 0.0154251983, -0.147772596, 6.91749803, 0.0191154219, 0.00401905945, -2.15446973, 0.00724769972, 0.00494706491, -0.494913969, 0.005949698, -0.0139435292, 0.00666382872, 0.0287489403, -0.0671297834, 0.0323408797, 0.0892539148, -0.206743639, 0.101358037, 0.00446788205, 0.0056498394, -0.547815495, -0.000367150947, 0.000794075217, -0.0119665495, 0, 0, 0, 7.848, -0.547815495
1744895330.916140079, 0.000472481832, -0.00183397572, -1.74938637, 0.00412438331, -0.0204032374, -2.48243911, 0.015246174, -0.148488499, 6.92991186, 0.0187245012, 0.00386635579, -2.15011829, 0.00726416108, 0.00498618365, -0.49921844, 0.005949698, -0.0139435292, 0.00666382872, 0.0287489403, -0.0671297834, 0.0323408797, 0.0892539148, -0.206743639, 0.101358037, 0.00446788205, 0.0056498394, -0.547815495, -0.000367150947, 0.000794075217, -0.0119665495, 0, 0, 0, 7.848, -0.547815495
1744895330.918135166, 0.000480760983, -0.00187507976, -1.75433737, 0.00415470478, -0.0207010042, -2.46855712, 0.0150663638, -0.149188542, 6.94211387, 0.0183251869, 0.00374183778, -2.14600338, 0.00727970677, 0.00502503248, -0.503514447, 0.005949698, -0.0139435292, 0.00666382872, 0.0287489403, -0.0671297834, 0.0323408797, 0.0892539148, -0.206743639, 0.101358037, 0.00446788205, 0.0056498394, -0.547815495, -0.000367150947, 0.000794075217, -0.0119665495, 0, 0, 0, 7.848, -0.547815495
1744895330.920339584, 0.000489100417, -0.00191678072, -1.75926057, 0.00418466649, -0.021000154, -2.45465113, 0.0148868753, -0.149872941, 6.954108, 0.017917681, 0.00364526247, -2.14212263, 0.00729431953, 0.00506366675, -0.507802459, 0.005949698, -0.0139435292, 0.00666382872, 0.0287489403, -0.0671297834, 0.0323408797, 0.0892539148, -0.206743639, 0.101358037, 0.00446788205, 0.0056498394, -0.547815495, -0.000367150947, 0.000794075217, -0.0119665495, 0, 0, 0, 7.848, -0.547815495
1744895330.922158003, 0.000497499416, -0.00195908133, -1.76415595, 0.00421427018, -0.0213006558, -2.44072155, 0.0147088048, -0.150541924, 6.96589809, 0.0175021831, 0.00357638914, -2.13847369, 0.00730798222, 0.00510214123, -0.512082944, 0.005949698, -0.0139435292, 0.00666382872, 0.0287489403, -0.0671297834, 0.0323408797, 0.0892539148, -0.206743639, 0.101358037, 0.00446788205, 0.0056498394, -0.547815495, -0.000367150947, 0.000794075217, -0.0119665495, 0, 0, 0, 7.848, -0.547815495
1744895330.924140692, 0.000505957267, -0.00200198428, -1.76902344, 0.00424351978, -0.021602479, -2.42676879, 0.0145332362, -0.151195737, 6.97748793, 0.01707889, 0.00353497931, -2.13505426, 0.00732067785, 0.00514051014, -0.516356362, 0.005949698, -0.0139435292, 0.00666382872, 0.0287489403, -0.0671297834, 0.0323408797, 0.0892539148, -0.206743639, 0.101358037, 0.00446788205, 0.0056498394, -0.547815495, -0.000130034045, -0.000183258644, 0.0208132098, 0, 0, 0, 7.848, -0.547815495
1744895330.926126719, 0.000514473268, -0.00204549217, -1.773863, 0.00427242138, -0.0219055934, -2.41279323, 0.0143612416, -0.151834641, 6.98888121, 0.016647996, 0.00352079674, -2.13186202, 0.00733238955, 0.00517882718, -0.520623169, 0.005949698, -0.0139435292, 0.00666382872, 0.0287489403, -0.0671297834, 0.0323408797, 0.0892539148, -0.206743639, 0.101358037, 0.00446788205, 0.0056498394, -0.547815495, -0.000130034045, -0.000183258644, 0.0208132098, 0, 0, 0, 7.848, -0.547815495
1744895330.928133249, 0.000523046731, -0.00208960755, -1.77867459, 0.00430098284, -0.0222099696, -2.39879526, 0.0141933523, -0.152458759, 7.00008157, 0.0162172732, 0.00350207298, -2.12836601, 0.00734311098, 0.00521711009, -0.524883288, 0.005949698, -0.0139435292, 0.00666382872, 0.0287489403, -0.0671297834, 0.0323408797, 0.0892539148, -0.206743639, 0.101358037, 0.00446788205, 0.0056498394, -0.547815495, -0.000130034045, -0.000183258644, 0.0208132098, 0, 0, 0, 7.848, -0.547815495
1744895330.930141211, 0.000531676983, -0.00213433292, -1.78345816, 0.00432921239, -0.0225155779, -2.38477526, 0.0140295664, -0.153068059, 7.01109256, 0.0157866978, 0.00347887614, -2.12456927, 0.00735284631, 0.00525534106, -0.529136116, 0.005949698, -0.0139435292, 0.00666382872, 0.0287489403, -0.0671297834, 0.0323408797, 0.0892539148, -0.206743639, 0.101358037, 0.00446788205, 0.0056498394, -0.547815495, -0.000130034045, -0.000183258644, 0.0208132098, 0, 0, 0, 7.848, -0.547815495
1744895330.932130337, 0.000540363369, -0.00217967071, -1.78821367, 0.00435711824, -0.0228223886, -2.3707336, 0.0138698844, -0.153662515, 7.02191766, 0.0153562465, 0.00345127294, -2.12047479, 0.00736159979, 0.00529350249, -0.533381053, 0.005949698, -0.0139435292, 0.00666382872, 0.0287489403, -0.0671297834, 0.0323408797, 0.0892539148, -0.206743639, 0.101358037, 0.00446788205, 0.0056498394, -0.547815495, -0.000130034045, -0.000183258644, 0.0208132098, 0, 0, 0, 7.848, -0.547815495
1744895330.934133291, 0.00054910525, -0.00222562331, -1.79294108, 0.00438470861, -0.023130372, -2.35667064, 0.0137143093, -0.154242095, 7.03256029, 0.0149258967, 0.00341932868, -2.11608556, 0.00736937573, 0.00533157697, -0.537617507, 0.005949698, -0.0139435292, 0.00666382872, 0.0287489403, -0.0671297834, 0.0323408797, 0.0892539148, -0.206743639, 0.101358037, 0.00446788205, 0.0056498394, -0.547815495, -0.00010672775, -0.00018470158, 0.0210571858, 0, 0, 0, 7.848, -0.547815495
1744895330.936133862, 0.000557902003, -0.00227219301, -1.79764033, 0.00441199172, -0.0234394985, -2.34258675, 0.0135628466, -0.154806772, 7.0430238, 0.014495626, 0.00338310727, -2.11140453, 0.00737617849, 0.00536954729, -0.541844893, 0.005949698, -0.0139435292, 0.00666382872, 0.0287489403, -0.0671297834, 0.0323408797, 0.0892539148, -0.206743639, 0.101358037, 0.00446788205, 0.0056498394, -0.547815495, -0.00010672775, -0.00018470158, 0.0210571858, 0, 0, 0, 7.848, -0.547815495
1744895330.938160658, 0.000566753022, -0.00231938209, -1.8023114, 0.00443897581, -0.0237497381, -2.32848227, 0.0134154965, -0.155356527, 7.05331147, 0.0140661644, 0.00334262316, -2.10643068, 0.00738201328, 0.00540739638, -0.546062625, 0.005949698, -0.0139435292, 0.00666382872, 0.0287489403, -0.0671297834, 0.0323408797, 0.0892539148, -0.206743639, 0.101358037, 0.00446788205, 0.0056498394, -0.547815495, -0.00010672775, -0.00018470158, 0.0210571858, 0, 0, 0, 7.848, -0.547815495
1744895330.940143824, 0.000575657717, -0.00236719274, -1.80695424, 0.00446566911, -0.024061061, -2.31435756, 0.013272254, -0.155891353, 7.06342651, 0.0136374828, 0.00329793497, -2.10116693, 0.00738688613, 0.00544510727, -0.550270121, 0.005949698, -0.0139435292, 0.00666382872, 0.0287489403, -0.0671297834, 0.0323408797, 0.0892539148, -0.206743639, 0.101358037, 0.00446788205, 0.0056498394, -0.547815495, -0.00010672775, -0.00018470158, 0.0210571858, 0, 0, 0, 7.848, -0.547815495
1744895330.942142487, 0.000584615514, -0.00241562708, -1.81156882, 0.00449207984, -0.0243734374, -2.30021294, 0.0131331162, -0.15641124, 7.07337208, 0.0132095528, 0.00324909999, -2.09561619, 0.0073908031, 0.00548266323, -0.554466804, 0.005949698, -0.0139435292, 0.00666382872, 0.0287489403, -0.0671297834, 0.0323408797, 0.0892539148, -0.206743639, 0.101358037, 0.00446788205, 0.0056498394, -0.547815495, -0.00010672775, -0.00018470158, 0.0210571858, 0, 0, 0, 7.848, -0.547815495
1744895330.944141150, 0.000593625857, -0.00246468721, -1.81615508, 0.00451821622, -0.0246868374, -2.28604875, 0.012998082, -0.156916181, 7.08315126, 0.0127823464, 0.00319617423, -2.08978132, 0.00739377032, 0.00552004771, -0.558652102, 0.005949698, -0.0139435292, 0.00666382872, 0.0287489403, -0.0671297834, 0.0323408797, 0.0892539148, -0.206743639, 0.101358037, 0.00446788205, 0.0056498394, -0.547815495, -8.29123542e-05, -0.000185874903, 0.0212513271, 0, 0, 0, 7.848, -0.547815495
1744895330.946128368, 0.000602688206, -0.00251437514, -1.82071299, 0.00454408645, -0.0250012311, -2.27186532, 0.012867152, -0.157406166, 7.09276708, 0.0123558362, 0.00313921244, -2.08366517, 0.00739579393, 0.00555724437, -0.562825452, 0.00750111518, -0.0175638246, 0.00841040538, 0.0333552722, -0.0777881945, 0.0375783654, 0.0949569981, -0.21948325, 0.108099526, 0.00446788205, 0.0056498394, -0.547815495, -8.29123542e-05, -0.000185874903, 0.0212513271, 0, 0, 0, 7.848, -0.578710459
1744895330.948129892, 0.000611802035, -0.00256469283, -1.82524252, 0.00456969874, -0.0253165886, -2.25766298, 0.0127403211, -0.157881198, 7.1022225, 0.0119307638, 0.00307822869, -2.07726742, 0.00739688091, 0.00559423702, -0.566986289, 0.00750111518, -0.0175638246, 0.00841040538, 0.0333552722, -0.0777881945, 0.0375783654, 0.0949569981, -0.21948325, 0.108099526, 0.00446788205, 0.0056498394, -0.547815495, -8.29123542e-05, -0.000185874903, 0.0212513271, 0, 0, 0, 7.848, -0.578710459
1744895330.950160980, 0.000620966838, -0.00261564216, -1.82974363, 0.00459506131, -0.0256328801, -2.24344202, 0.0126175782, -0.158341287, 7.11152043, 0.011507095, 0.0030132725, -2.07059088, 0.00739703906, 0.00563100962, -0.571134054, 0.00750111518, -0.0175638246, 0.00841040538, 0.0333552722, -0.0777881945, 0.0375783654, 0.0949569981, -0.21948325, 0.108099526, 0.00446788205, 0.0056498394, -0.547815495, -8.29123542e-05, -0.000185874903, 0.0212513271, 0, 0, 0, 7.848, -0.578710459
1744895330.952169418, 0.000630182123, -0.00266722499, -1.83421627, 0.0046201823, -0.0259500756, -2.22920277, 0.0124989135, -0.158786445, 7.12066372, 0.0110847965, 0.00294439223, -2.06363834, 0.0073962762, 0.00566754632, -0.575268193, 0.00750111518, -0.0175638246, 0.00841040538, 0.0333552722, -0.0777881945, 0.0375783654, 0.0949569981, -0.21948325, 0.108099526, 0.00446788205, 0.0056498394, -0.547815495, -8.29123542e-05, -0.000185874903, 0.0212513271, 0, 0, 0, 7.848, -0.578710459
1744895330.954156399, 0.000639447415, -0.00271944309, -1.83866042, 0.00464506989, -0.0262681454, -2.21494552, 0.0123843186, -0.159216682, 7.12965515, 0.0106638356, 0.00287163505, -2.05641257, 0.00739460015, 0.00570383149, -0.579388154, 0.00750111518, -0.0175638246, 0.00841040538, 0.0333552722, -0.0777881945, 0.0375783654, 0.0949569981, -0.21948325, 0.108099526, 0.00446788205, 0.0056498394, -0.547815495, -5.93641909e-05, -0.000184863627, 0.0213675051, 0, 0, 0, 7.848, -0.578710459
1744895330.956136465, 0.000648762255, -0.00277229818, -1.84307604, 0.0046697322, -0.0265870596, -2.20067058, 0.0122737867, -0.159632007, 7.13849746, 0.0102441801, 0.00279504703, -2.04891629, 0.00739201876, 0.00573984971, -0.583493396, 0.00750111518, -0.0175638246, 0.00841040538, 0.0333552722, -0.0777881945, 0.0375783654, 0.0949569981, -0.21948325, 0.108099526, 0.00446788205, 0.0056498394, -0.547815495, -5.93641909e-05, -0.000184863627, 0.0213675051, 0, 0, 0, 7.848, -0.578710459
1744895330.958142519, 0.000658126202, -0.00282579192, -1.84746309, 0.00469417736, -0.0269067884, -2.18637824, 0.0121673051, -0.16003244, 7.14719334, 0.00982655831, 0.00271470415, -2.04115034, 0.00738854068, 0.00577558577, -0.587583378, 0.00750111518, -0.0175638246, 0.00841040538, 0.0333552722, -0.0777881945, 0.0375783654, 0.0949569981, -0.21948325, 0.108099526, 0.00446788205, 0.0056498394, -0.547815495, -5.93641909e-05, -0.000184863627, 0.0213675051, 0, 0, 0, 7.848, -0.578710459
1744895330.960141659, 0.000667538828, -0.0028799259, -1.85182154, 0.00471841345, -0.0272273021, -2.17206878, 0.0120648557, -0.160418011, 7.15574539, 0.00941093206, 0.00263064687, -2.0331174, 0.00738417531, 0.0058110247, -0.591657564, 0.00750111518, -0.0175638246, 0.00841040538, 0.0333552722, -0.0777881945, 0.0375783654, 0.0949569981, -0.21948325, 0.108099526, 0.00415365167, 0.00665170592, -0.578710459, -5.93641909e-05, -0.000184863627, 0.0213675051, 0, 0, 0, 7.848, -0.578710459
1744895330.962089300, 0.000676999725, -0.00293470167, -1.85615135, 0.00474244854, -0.027548571, -2.15774249, 0.0119664214, -0.160788749, 7.16415621, 0.0089972638, 0.00254291458, -2.02482017, 0.00737893206, 0.00584615173, -0.595715422, 0.00750111518, -0.0175638246, 0.00841040538, 0.0333552722, -0.0777881945, 0.0375783654, 0.0949569981, -0.21948325, 0.108099526, 0.00415365167, 0.00665170592, -0.578710459, -5.93641909e-05, -0.000184863627, 0.0213675051, 0, 0, 0, 7.848, -0.578710459
1744895330.964143515, 0.000686508497, -0.0029901207, -1.86045249, 0.00476629062, -0.0278705655, -2.14339964, 0.0118719857, -0.161144682, 7.17242831, 0.00858551674, 0.00245154568, -2.01626126, 0.00737282035, 0.0058809523, -0.599756426, 0.00750111518, -0.0175638246, 0.00841040538, 0.0333552722, -0.0777881945, 0.0375783654, 0.0949569981, -0.21948325, 0.108099526, 0.00415365167, 0.00665170592, -0.578710459, -0.000356833954, 0.000840160798, -0.0101057732, 0, 0, 0, 7.848, -0.578710459
1744895330.966140509, 0.000696064767, -0.00304618443, -1.86472493, 0.00478994771, -0.0281932561, -2.12904051, 0.0117815334, -0.161485835, 7.18056416, 0.00817565483, 0.00235657756, -2.00744331, 0.00736584956, 0.00591541204, -0.603780056, 0.00750111518, -0.0175638246, 0.00841040538, 0.0333552722, -0.0777881945, 0.0375783654, 0.0949569981, -0.21948325, 0.108099526, 0.00415365167, 0.00665170592, -0.578710459, -0.000356833954, 0.000840160798, -0.0101057732, 0, 0, 0, 7.848, -0.578710459
1744895330.968135834, 0.000705668173, -0.00310289421, -1.86896864, 0.00481342811, -0.0285166132, -2.11466537, 0.0116956089, -0.161812424, 7.18856619, 0.00775811432, 0.00229112703, -1.99887653, 0.00735801648, 0.00594955361, -0.607786303, 0.00750111518, -0.0175638246, 0.00841040538, 0.0333552722, -0.0777881945, 0.0375783654, 0.0949569981, -0.21948325, 0.108099526, 0.00415365167, 0.00665170592, -0.578710459, -0.000356833954, 0.000840160798, -0.0101057732, 0, 0, 0, 7.848, -0.578710459
1744895330.970140457, 0.000715318371, -0.00316025135, -1.87318358, 0.00483674199, -0.0288406083, -2.10027447, 0.0116153081, -0.162124859, 7.19643675, 0.00733308948, 0.00225492902, -1.99055842, 0.0073493053, 0.00598343624, -0.611775668, 0.00750111518, -0.0175638246, 0.00841040538, 0.0333552722, -0.0777881945, 0.0375783654, 0.0949569981, -0.21948325, 0.108099526, 0.00415365167, 0.00665170592, -0.578710459, -0.000356833954, 0.000840160798, -0.0101057732, 0, 0, 0, 7.848, -0.578710459
1744895330.972206593, 0.00072501504, -0.00321825709, -1.87736972, 0.0048599017, -0.0291652133, -2.08586808, 0.0115417114, -0.162423564, 7.20417818, 0.00690077128, 0.00224772077, -1.98248649, 0.00733970034, 0.00601711855, -0.615748644, 0.00750111518, -0.0175638246, 0.00841040538, 0.0333552722, -0.0777881945, 0.0375783654, 0.0949569981, -0.21948325, 0.108099526, 0.00415365167, 0.00665170592, -0.578710459, -0.000356833954, 0.000840160798, -0.0101057732, 0, 0, 0, 7.848, -0.578710459
1744895330.974134207, 0.000734757887, -0.00327691262, -1.88152704, 0.00488292169, -0.0294904015, -2.07144645, 0.0114758837, -0.162708975, 7.21179274, 0.0064613474, 0.00226924181, -1.97465827, 0.00732918604, 0.00605065859, -0.619705721, 0.00750111518, -0.0175638246, 0.00841040538, 0.0333552722, -0.0777881945, 0.0375783654, 0.0949569981, -0.21948325, 0.108099526, 0.00415365167, 0.00665170592, -0.578710459, -1.98763805e-05, -0.000157685351, 0.0207692008, 0, 0, 0, 7.848, -0.578710459
1744895330.976141691, 0.000744546647, -0.0033362191, -1.88565549, 0.00490581858, -0.0298161465, -2.05700983, 0.0114188745, -0.162981542, 7.21928267, 0.00601500245, 0.00231923398, -1.96707133, 0.00731774694, 0.00608411382, -0.623647384, 0.00750111518, -0.0175638246, 0.00841040538, 0.0333552722, -0.0777881945, 0.0375783654, 0.0949569981, -0.21948325, 0.108099526, 0.00415365167, 0.00665170592, -0.578710459, -1.98763805e-05, -0.000157685351, 0.0207692008, 0, 0, 0, 7.848, -0.578710459
1744895330.978202820, 0.000754381094, -0.0033961776, -1.88975506, 0.00492861067, -0.0301424231, -2.04255846, 0.0113711607, -0.163241552, 7.22665015, 0.00557272326, 0.00236523447, -1.95922527, 0.00730538163, 0.00611750529, -0.627573614, 0.00750111518, -0.0175638246, 0.00841040538, 0.0333552722, -0.0777881945, 0.0375783654, 0.0949569981, -0.21948325, 0.108099526, 0.00415365167, 0.00665170592, -0.578710459, -1.98763805e-05, -0.000157685351, 0.0207692008, 0, 0, 0, 7.848, -0.578710459
1744895330.980193853, 0.000764261035, -0.00345678916, -1.89382572, 0.00495131647, -0.0304692063, -2.02809258, 0.0113326553, -0.16348912, 7.23389733, 0.00513445244, 0.00240727484, -1.95112268, 0.00729210265, 0.00615081806, -0.631483897, 0.00750111518, -0.0175638246, 0.00841040538, 0.0333552722, -0.0777881945, 0.0375783654, 0.0949569981, -0.21948325, 0.108099526, 0.00415365167, 0.00665170592, -0.578710459, -1.98763805e-05, -0.000157685351, 0.0207692008, 0, 0, 0, 7.848, -0.578710459
1744895330.982139111, 0.000774186317, -0.00351805478, -1.89786742, 0.00497395431, -0.0307964714, -2.01361244, 0.0113032715, -0.163724361, 7.2410263, 0.00470013324, 0.00244538583, -1.94276614, 0.0072779225, 0.00618403738, -0.635377721, 0.00750111518, -0.0175638246, 0.00841040538, 0.0333552722, -0.0777881945, 0.0375783654, 0.0949569981, -0.21948325, 0.108099526, 0.00415365167, 0.00665170592, -0.578710459, -1.98763805e-05, -0.000157685351, 0.0207692008, 0, 0, 0, 7.848, -0.578710459
1744895330.984465599, 0.000784156821, -0.00357997539, -1.90188015, 0.00499654236, -0.0311241937, -1.99911826, 0.0112829227, -0.163947383, 7.24803913, 0.00426970958, 0.00247959727, -1.93415817, 0.00726285366, 0.00621714875, -0.639254582, 0.00750111518, -0.0175638246, 0.00841040538, 0.0333552722, -0.0777881945, 0.0375783654, 0.0949569981, -0.21948325, 0.108099526, 0.00415365167, 0.00665170592, -0.578710459, -1.98763805e-05, -0.000157685351, 0.0207692008, 0, 0, 0, 7.848, -0.578710459
1744895330.986182690, 0.000794172467, -0.00364255187, -1.90586388, 0.0050190986, -0.0314523491, -1.98461026, 0.0112715224, -0.164158295, 7.25493783, 0.00384312603, 0.00250993819, -1.92530129, 0.00724690854, 0.00625013784, -0.643113978, 0.00750111518, -0.0175638246, 0.00841040538, 0.0333552722, -0.0777881945, 0.0375783654, 0.0949569981, -0.21948325, 0.108099526, 0.00415365167, 0.00665170592, -0.578710459, 4.14834279e-06, -0.00015779901, 0.0207597431, 0, 0, 0, 7.848, -0.578710459
1744895330.988173962, 0.000804233208, -0.00370578509, -1.90981858, 0.00504164084, -0.0317809133, -1.97008869, 0.0112689764, -0.164357212, 7.26172438, 0.00342110278, 0.00253643165, -1.91619815, 0.00723010031, 0.00628299057, -0.646955416, 0.00750111518, -0.0175638246, 0.00841040538, 0.0333552722, -0.0777881945, 0.0375783654, 0.0949569981, -0.21948325, 0.108099526, 0.00415365167, 0.00665170592, -0.578710459, 4.14834279e-06, -0.00015779901, 0.0207597431, 0, 0, 0, 7.848, -0.578710459
1744895330.990154982, 0.000814339035, -0.00376967582, -1.91374422, 0.00506418669, -0.0321098626, -1.95555375, 0.0112751823, -0.164544257, 7.26840071, 0.00300357795, 0.00255910216, -1.90685121, 0.00721244283, 0.00631569302, -0.650778405, 0.00750111518, -0.0175638246, 0.00841040538, 0.0333552722, -0.0777881945, 0.0375783654, 0.0949569981, -0.21948325, 0.108099526, 0.00415365167, 0.00665170592, -0.578710459, 4.14834279e-06, -0.00015779901, 0.0207597431, 0, 0, 0, 7.848, -0.578710459
1744895330.992162704, 0.000824489971, -0.00383422481, -1.91764078, 0.00508675356, -0.0324391734, -1.94100566, 0.011290038, -0.164719549, 7.27496874, 0.00259049037, 0.00257797355, -1.8972629, 0.00719394992, 0.00634823153, -0.65458246, 0.00750111518, -0.0175638246, 0.00841040538, 0.0333552722, -0.0777881945, 0.0375783654, 0.0949569981, -0.21948325, 0.108099526, 0.00415365167, 0.00665170592, -0.578710459, 4.14834279e-06, -0.00015779901, 0.0207597431, 0, 0, 0, 7.848, -0.578710459
1744895330.994165421, 0.000834686077, -0.00389943276, -1.92150823, 0.00510935865, -0.0327688222, -1.92644463, 0.0113134412, -0.164883203, 7.28143031, 0.00218177962, 0.00259306894, -1.88743564, 0.00717463534, 0.00638059261, -0.6583671, 0.00750111518, -0.0175638246, 0.00841040538, 0.0333552722, -0.0777881945, 0.0375783654, 0.0949569981, -0.21948325, 0.108099526, 0.00415365167, 0.00665170592, -0.578710459, 2.77986476e-05, -0.000158021599, 0.020705651, 0, 0, 0, 7.848, -0.578710459
1744895330.996143103, 0.000844927445, -0.00396530034, -1.92534655, 0.00513201895, -0.0330987859, -1.91187088, 0.0113452897, -0.165035334, 7.28778725, 0.00177738599, 0.00260441081, -1.87737182, 0.00715451276, 0.00641276299, -0.662131851, 0.00928987221, -0.021732692, 0.0104271788, 0.0382404291, -0.0890672195, 0.043146668, 0.100407421, -0.231569528, 0.11459116, 0.00415365167, 0.00665170592, -0.578710459, 2.77986476e-05, -0.000158021599, 0.020705651, 0, 0, 0, 7.848, -0.60803756
1744895330.998169661, 0.000855214202, -0.00403182813, -1.92915571, 0.00515475125, -0.0334290416, -1.89728461, 0.0113854732, -0.165176061, 7.29404135, 0.00137801344, 0.00261201239, -1.86707467, 0.00713359658, 0.00644472961, -0.665876242, 0.00928987221, -0.021732692, 0.0104271788, 0.0382404291, -0.0890672195, 0.043146668, 0.100407421, -0.231569528, 0.11459116, 0.00415365167, 0.00665170592, -0.578710459, 2.77986476e-05, -0.000158021599, 0.020705651, 0, 0, 0, 7.848, -0.60803756
1744895331.000150204, 0.000865546511, -0.00409901671, -1.93293568, 0.00517757211, -0.0337595666, -1.88268602, 0.0114338731, -0.16530551, 7.30019436, 0.000983596076, 0.00261589212, -1.85654653, 0.00711190186, 0.00647647961, -0.669599809, 0.00928987221, -0.021732692, 0.0104271788, 0.0382404291, -0.0890672195, 0.043146668, 0.100407421, -0.231569528, 0.11459116, 0.00415365167, 0.00665170592, -0.578710459, 2.77986476e-05, -0.000158021599, 0.020705651, 0, 0, 0, 7.848, -0.60803756
1744895331.002146959, 0.000875924563, -0.00416686659, -1.93668644, 0.00520049784, -0.0340903386, -1.86807531, 0.0114903707, -0.165423805, 7.30624799, 0.000594068838, 0.00261606795, -1.84578972, 0.00708944357, 0.00650800033, -0.673302093, 0.00928987221, -0.021732692, 0.0104271788, 0.0382404291, -0.0890672195, 0.043146668, 0.100407421, -0.231569528, 0.11459116, 0.00415365167, 0.00665170592, -0.578710459, 2.77986476e-05, -0.000158021599, 0.020705651, 0, 0, 0, 7.848, -0.60803756
1744895331.004103661, 0.000886348585, -0.00423537824, -1.94040797, 0.00522354452, -0.0344213353, -1.85345268, 0.0115548472, -0.165531065, 7.31220392, 0.000209367461, 0.00261255729, -1.8348065, 0.00706623662, 0.00653927931, -0.676982638, 0.00928987221, -0.021732692, 0.0104271788, 0.0382404291, -0.0890672195, 0.043146668, 0.100407421, -0.231569528, 0.11459116, 0.00415365167, 0.00665170592, -0.578710459, 5.01470215e-05, -0.000156438162, 0.0205809816, 0, 0, 0, 7.848, -0.60803756
1744895331.006149769, 0.000896818834, -0.00430455209, -1.94410024, 0.00524672799, -0.0347525348, -1.83881832, 0.0116271838, -0.165627406, 7.31806381, -0.000170571502, 0.00260537705, -1.82359916, 0.00704229581, 0.0065703043, -0.680640994, 0.00928987221, -0.021732692, 0.0104271788, 0.0382404291, -0.0890672195, 0.043146668, 0.100407421, -0.231569528, 0.11459116, 0.00415365167, 0.00665170592, -0.578710459, 5.01470215e-05, -0.000156438162, 0.0205809816, 0, 0, 0, 7.848, -0.60803756
1744895331.008144379, 0.0009073356, -0.00437438853, -1.94776323, 0.00527006386, -0.0350839154, -1.82417241, 0.0117072545, -0.165712949, 7.32382926, -0.000545089675, 0.00259459346, -1.81217194, 0.00701763659, 0.00660106331, -0.684276718, 0.00928987221, -0.021732692, 0.0104271788, 0.0382404291, -0.0890672195, 0.043146668, 0.100407421, -0.231569528, 0.11459116, 0.00415365167, 0.00665170592, -0.578710459, 5.01470215e-05, -0.000156438162, 0.0205809816, 0, 0, 0, 7.848, -0.60803756
1744895331.010095596, 0.000917899203, -0.00444488788, -1.95139692, 0.00529356745, -0.0354154556, -1.80951514, 0.0117949258, -0.165787825, 7.32950186, -0.000914255904, 0.0025802194, -1.80052704, 0.006992275, 0.00663154463, -0.687889371, 0.00928987221, -0.021732692, 0.0104271788, 0.0382404291, -0.0890672195, 0.043146668, 0.100407421, -0.231569528, 0.11459116, 0.00375941002, 0.00766889963, -0.60803756, 5.01470215e-05, -0.000156438162, 0.0205809816, 0, 0, 0, 7.848, -0.60803756
1744895331.012145042, 0.000928509993, -0.00451605047, -1.95500128, 0.00531725384, -0.0357471342, -1.7948467, 0.0118900643, -0.165852157, 7.33508316, -0.00127813816, 0.00256226742, -1.78866664, 0.00696622699, 0.00666173671, -0.691478521, 0.00928987221, -0.021732692, 0.0104271788, 0.0382404291, -0.0890672195, 0.043146668, 0.100407421, -0.231569528, 0.11459116, 0.00375941002, 0.00766889963, -0.60803756, 5.01470215e-05, -0.000156438162, 0.0205809816, 0, 0, 0, 7.848, -0.60803756
1744895331.014189005, 0.000939168352, -0.00458787652, -1.9585763, 0.00534113783, -0.0360789304, -1.78016726, 0.0119925361, -0.165906067, 7.34057468, -0.00163680355, 0.00254074969, -1.77659289, 0.00693950839, 0.00669162823, -0.695043738, 0.00928987221, -0.021732692, 0.0104271788, 0.0382404291, -0.0890672195, 0.043146668, 0.100407421, -0.231569528, 0.11459116, 0.00375941002, 0.00766889963, -0.60803756, -0.000331115391, 0.000884390213, -0.00952587742, 0, 0, 0, 7.848, -0.60803756
1744895331.016155720, 0.000949874688, -0.00466036628, -1.96212194, 0.00536523396, -0.0364108233, -1.765477, 0.0121022075, -0.165949672, 7.34597791, -0.00199031828, 0.00251567807, -1.76430793, 0.00691213495, 0.00672120803, -0.698584599, 0.00928987221, -0.021732692, 0.0104271788, 0.0382404291, -0.0890672195, 0.043146668, 0.100407421, -0.231569528, 0.11459116, 0.00375941002, 0.00766889963, -0.60803756, -0.000331115391, 0.000884390213, -0.00952587742, 0, 0, 0, 7.848, -0.60803756
1744895331.018140554, 0.00096062944, -0.00473351989, -1.9656382, 0.00538955687, -0.0367427927, -1.7507761, 0.0122195242, -0.165983297, 7.3512943, -0.0023509863, 0.00252066182, -1.75229946, 0.00688410672, 0.00675050209, -0.702101167, 0.00928987221, -0.021732692, 0.0104271788, 0.0382404291, -0.0890672195, 0.043146668, 0.100407421, -0.231569528, 0.11459116, 0.00375941002, 0.00766889963, -0.60803756, -0.000331115391, 0.000884390213, -0.00952587742, 0, 0, 0, 7.848, -0.60803756
1744895331.020190716, 0.000971433079, -0.00480733751, -1.96912504, 0.00541412289, -0.037074819, -1.73606472, 0.0123455022, -0.166007484, 7.35652528, -0.00271863066, 0.00255542122, -1.74056472, 0.00685540816, 0.00677957304, -0.705593994, 0.00928987221, -0.021732692, 0.0104271788, 0.0382404291, -0.0890672195, 0.043146668, 0.100407421, -0.231569528, 0.11459116, 0.00375941002, 0.00766889963, -0.60803756, -0.000331115391, 0.000884390213, -0.00952587742, 0, 0, 0, 7.848, -0.60803756
1744895331.022144794, 0.000982286108, -0.00488181922, -1.97258244, 0.00543895033, -0.0374068841, -1.72134304, 0.0124811414, -0.166022784, 7.36167224, -0.00309307823, 0.00261967891, -1.72910097, 0.00682602387, 0.00680848289, -0.709063623, 0.00928987221, -0.021732692, 0.0104271788, 0.0382404291, -0.0890672195, 0.043146668, 0.100407421, -0.231569528, 0.11459116, 0.00375941002, 0.00766889963, -0.60803756, -0.000331115391, 0.000884390213, -0.00952587742, 0, 0, 0, 7.848, -0.60803756
1744895331.024100304, 0.00099318907, -0.00495696508, -1.9760104, 0.00546405951, -0.0377389707, -1.70661121, 0.0126274248, -0.166029755, 7.36673656, -0.00347415951, 0.00271315989, -1.7179055, 0.00679593851, 0.00683729297, -0.712510594, 0.00928987221, -0.021732692, 0.0104271788, 0.0382404291, -0.0890672195, 0.043146668, 0.100407421, -0.231569528, 0.11459116, 0.00375941002, 0.00766889963, -0.60803756, 8.28393083e-05, -0.000129032608, 0.0195563164, 0, 0, 0, 7.848, -0.60803756
1744895331.026168585, 0.00100414255, -0.00503277512, -1.97940888, 0.00548947269, -0.0380710627, -1.69186941, 0.0127853194, -0.166028965, 7.37171956, -0.00386170852, 0.00283559158, -1.70697563, 0.00676513688, 0.006866064, -0.715935439, 0.00928987221, -0.021732692, 0.0104271788, 0.0382404291, -0.0890672195, 0.043146668, 0.100407421, -0.231569528, 0.11459116, 0.00375941002, 0.00766889963, -0.60803756, 8.28393083e-05, -0.000129032608, 0.0195563164, 0, 0, 0, 7.848, -0.60803756
1744895331.028147459, 0.00101514718, -0.00510924934, -1.98277787, 0.00551521366, -0.0384031451, -1.67711779, 0.012955199, -0.166020789, 7.37662258, -0.00424226625, 0.00295398815, -1.69583963, 0.00673362045, 0.00689482022, -0.719338218, 0.00928987221, -0.021732692, 0.0104271788, 0.0382404291, -0.0890672195, 0.043146668, 0.100407421, -0.231569528, 0.11459116, 0.00375941002, 0.00766889963, -0.60803756, 8.28393083e-05, -0.000129032608, 0.0195563164, 0, 0, 0, 7.848, -0.60803756
1744895331.030153513, 0.00102620364, -0.00518638771, -1.98611734, 0.00554130618, -0.0387352033, -1.6623565, 0.0131368528, -0.166005401, 7.38144689, -0.00461591929, 0.00306835995, -1.68449957, 0.00670140731, 0.0069235498, -0.722718521, 0.00928987221, -0.021732692, 0.0104271788, 0.0382404291, -0.0890672195, 0.043146668, 0.100407421, -0.231569528, 0.11459116, 0.00375941002, 0.00766889963, -0.60803756, 8.28393083e-05, -0.000129032608, 0.0195563164, 0, 0, 0, 7.848, -0.60803756
1744895331.032169580, 0.00103731266, -0.00526419015, -1.98942729, 0.00556777359, -0.039067223, -1.64758571, 0.0133300702, -0.165982972, 7.38619377, -0.00498275341, 0.00317871712, -1.67295748, 0.00666851538, 0.00695224111, -0.726075942, 0.00928987221, -0.021732692, 0.0104271788, 0.0382404291, -0.0890672195, 0.043146668, 0.100407421, -0.231569528, 0.11459116, 0.00375941002, 0.00766889963, -0.60803756, 8.28393083e-05, -0.000129032608, 0.0195563164, 0, 0, 0, 7.848, -0.60803756
1744895331.034155607, 0.001048475, -0.00534265659, -1.99270768, 0.00559463881, -0.0393991903, -1.63280556, 0.0135346409, -0.165953667, 7.39086446, -0.00534285352, 0.00328506962, -1.66121539, 0.00663496248, 0.0069808827, -0.729410079, 0.00928987221, -0.021732692, 0.0104271788, 0.0382404291, -0.0890672195, 0.043146668, 0.100407421, -0.231569528, 0.11459116, 0.00375941002, 0.00766889963, -0.60803756, 0.000103464981, -0.000129829395, 0.019326936, 0, 0, 0, 7.848, -0.60803756
1744895331.036115408, 0.00105969149, -0.00542178689, -1.9959585, 0.00562192433, -0.0397310916, -1.61801621, 0.0137503544, -0.165917645, 7.39546016, -0.0056963037, 0.00338742721, -1.6492753, 0.0066007663, 0.00700946334, -0.732720534, 0.00928987221, -0.021732692, 0.0104271788, 0.0382404291, -0.0890672195, 0.043146668, 0.100407421, -0.231569528, 0.11459116, 0.00375941002, 0.00766889963, -0.60803756, 0.000103464981, -0.000129829395, 0.019326936, 0, 0, 0, 7.848, -0.60803756
1744895331.038176298, 0.001070963, -0.00550158092, -1.99917973, 0.00564965224, -0.0400629137, -1.6032178, 0.0139769926, -0.16587507, 7.39998207, -0.00604252185, 0.00348577273, -1.63714288, 0.00656594504, 0.00703797197, -0.736006917, 0.00928987221, -0.021732692, 0.0104271788, 0.0382404291, -0.0890672195, 0.043146668, 0.100407421, -0.231569528, 0.11459116, 0.00375941002, 0.00766889963, -0.60803756, 0.000103464981, -0.000129829395, 0.019326936, 0, 0, 0, 7.848, -0.60803756
1744895331.040160179, 0.00108229041, -0.0055820385, -2.00237136, 0.00567784415, -0.0403946437, -1.58841048, 0.0142143296, -0.165826105, 7.40443136, -0.00638159706, 0.0035801138, -1.62482006, 0.00653051739, 0.00706639771, -0.739268845, 0.00928987221, -0.021732692, 0.0104271788, 0.0382404291, -0.0890672195, 0.043146668, 0.100407421, -0.231569528, 0.11459116, 0.00375941002, 0.00766889963, -0.60803756, 0.000103464981, -0.000129829395, 0.019326936, 0, 0, 0, 7.848, -0.60803756
1744895331.042155743, 0.0010936747, -0.00566315944, -2.00553337, 0.00570652124, -0.040726269, -1.57359439, 0.0144621395, -0.165770913, 7.40880917, -0.00671361749, 0.00367045798, -1.61230875, 0.00649450191, 0.0070947299, -0.742505939, 0.00928987221, -0.021732692, 0.0104271788, 0.0382404291, -0.0890672195, 0.043146668, 0.100407421, -0.231569528, 0.11459116, 0.00375941002, 0.00766889963, -0.60803756, 0.000103464981, -0.000129829395, 0.019326936, 0, 0, 0, 7.848, -0.60803756
1744895331.044156551, 0.00110511684, -0.00574494352, -2.00866573, 0.00573570422, -0.0410577772, -1.55876967, 0.0147201969, -0.165709647, 7.41311662, -0.00703867039, 0.00375681279, -1.59961082, 0.00645791703, 0.00712295801, -0.745717824, 0.00928987221, -0.021732692, 0.0104271788, 0.0382404291, -0.0890672195, 0.043146668, 0.100407421, -0.231569528, 0.11459116, 0.00375941002, 0.00766889963, -0.60803756, 0.000123075313, -0.000131156478, 0.0190613503, 0, 0, 0, 7.848, -0.60803756
1744895331.046159506, 0.00111661787, -0.00582739048, -2.01176844, 0.00576541338, -0.0413891564, -1.54393646, 0.0149882767, -0.165642458, 7.4173548, -0.00735684207, 0.00383918573, -1.58672815, 0.006420781, 0.00715107174, -0.74890413, 0.0113295958, -0.0264803488, 0.0127303786, 0.0433918541, -0.100934392, 0.0490333616, 0.105608232, -0.243010464, 0.120835607, 0.00375941002, 0.00766889963, -0.60803756, 0.000123075313, -0.000131156478, 0.0190613503, 0, 0, 0, 7.848, -0.635874749
1744895331.048118591, 0.00112817886, -0.00591050007, -2.01484147, 0.00579566852, -0.0417203948, -1.5290949, 0.0152661461, -0.165569496, 7.42152481, -0.00766758538, 0.0039175405, -1.57366686, 0.00638311257, 0.00717906094, -0.752064491, 0.0113295958, -0.0264803488, 0.0127303786, 0.0433918541, -0.100934392, 0.0490333616, 0.105608232, -0.243010464, 0.120835607, 0.00375941002, 0.00766889963, -0.60803756, 0.000123075313, -0.000131156478, 0.0190613503, 0, 0, 0, 7.848, -0.635874749
1744895331.050150394, 0.00113980092, -0.00599427198, -2.01788481, 0.00582648898, -0.0420514812, -1.51424512, 0.0155535648, -0.165490915, 7.42562768, -0.00797099121, 0.00399188311, -1.56042875, 0.00634493091, 0.00720691562, -0.755198554, 0.0113295958, -0.0264803488, 0.0127303786, 0.0433918541, -0.100934392, 0.0490333616, 0.105608232, -0.243010464, 0.120835607, 0.00375941002, 0.00766889963, -0.60803756, 0.000123075313, -0.000131156478, 0.0190613503, 0, 0, 0, 7.848, -0.635874749
1744895331.052172661, 0.0011514852, -0.0060787059, -2.02089845, 0.00585789362, -0.0423824044, -1.49938725, 0.0158502927, -0.165406865, 7.42966445, -0.00826714947, 0.00406221966, -1.54701557, 0.00630625506, 0.00723462595, -0.758305966, 0.0113295958, -0.0264803488, 0.0127303786, 0.0433918541, -0.100934392, 0.0490333616, 0.105608232, -0.243010464, 0.120835607, 0.00375941002, 0.00766889963, -0.60803756, 0.000123075313, -0.000131156478, 0.0190613503, 0, 0, 0, 7.848, -0.635874749
1744895331.054208279, 0.0011632329, -0.00616380149, -2.02388235, 0.00588990083, -0.0427131536, -1.48452143, 0.0161560905, -0.165317487, 7.43363614, -0.00855614903, 0.00412855634, -1.53342909, 0.00626710388, 0.0072621823, -0.76138638, 0.0113295958, -0.0264803488, 0.0127303786, 0.0433918541, -0.100934392, 0.0490333616, 0.105608232, -0.243010464, 0.120835607, 0.00375941002, 0.00766889963, -0.60803756, 0.000140659266, -0.000131089945, 0.0187355316, 0, 0, 0, 7.848, -0.635874749
1744895331.056159973, 0.00117504522, -0.0062495584, -2.02683652, 0.0059225285, -0.0430437184, -1.46964778, 0.0164707192, -0.16522292, 7.43754373, -0.00883807781, 0.00419089946, -1.51967103, 0.0062274961, 0.00728957521, -0.764439449, 0.0113295958, -0.0264803488, 0.0127303786, 0.0433918541, -0.100934392, 0.0490333616, 0.105608232, -0.243010464, 0.120835607, 0.00375941002, 0.00766889963, -0.60803756, 0.000140659266, -0.000131089945, 0.0187355316, 0, 0, 0, 7.848, -0.635874749
1744895331.058189869, 0.00118692344, -0.00633597625, -2.02976094, 0.00595579406, -0.0433740884, -1.45476642, 0.0167939338, -0.165123303, 7.44138821, -0.00911245545, 0.00424925675, -1.50574836, 0.00618745079, 0.00731679539, -0.767464838, 0.0113295958, -0.0264803488, 0.0127303786, 0.0433918541, -0.100934392, 0.0490333616, 0.105608232, -0.243010464, 0.120835607, 0.00375941002, 0.00766889963, -0.60803756, 0.000140659266, -0.000131089945, 0.0187355316, 0, 0, 0, 7.848, -0.635874749
1744895331.060150623, 0.00119886884, -0.00642305464, -2.03265558, 0.00598971441, -0.0437042539, -1.43987749, 0.017125483, -0.165018776, 7.44517051, -0.00937937347, 0.00430363317, -1.49166274, 0.00614698742, 0.0073438338, -0.77046222, 0.0113295958, -0.0264803488, 0.0127303786, 0.0433918541, -0.100934392, 0.0490333616, 0.105608232, -0.243010464, 0.120835607, 0.00334207078, 0.00869554036, -0.635874749, 0.000140659266, -0.000131089945, 0.0187355316, 0, 0, 0, 7.848, -0.635874749
1744895331.062164068, 0.00121088274, -0.00651079314, -2.03552044, 0.00602430599, -0.044034205, -1.42498109, 0.0174651161, -0.164909476, 7.44889159, -0.00963892232, 0.00435403385, -1.47741578, 0.00610612526, 0.00737068153, -0.77343127, 0.0113295958, -0.0264803488, 0.0127303786, 0.0433918541, -0.100934392, 0.0490333616, 0.105608232, -0.243010464, 0.120835607, 0.00334207078, 0.00869554036, -0.635874749, 0.000140659266, -0.000131089945, 0.0187355316, 0, 0, 0, 7.848, -0.635874749
1744895331.064221859, 0.00122296652, -0.00659919132, -2.0383555, 0.00605958471, -0.0443639324, -1.41007737, 0.0178125831, -0.164795534, 7.45255234, -0.00989119143, 0.00440046416, -1.46300911, 0.00606488345, 0.00739732984, -0.776371668, 0.0113295958, -0.0264803488, 0.0127303786, 0.0433918541, -0.100934392, 0.0490333616, 0.105608232, -0.243010464, 0.120835607, 0.00334207078, 0.00869554036, -0.635874749, 0.000140659266, -0.000131089945, 0.0187355316, 0, 0, 0, 7.848, -0.635874749
1744895331.066155434, 0.00123512155, -0.00668824873, -2.04116075, 0.00609556599, -0.0446934269, -1.39516643, 0.0181676348, -0.164677074, 7.45615367, -0.0101362691, 0.00444292968, -1.44844432, 0.00602328092, 0.00742377014, -0.779283094, 0.0113295958, -0.0264803488, 0.0127303786, 0.0433918541, -0.100934392, 0.0490333616, 0.105608232, -0.243010464, 0.120835607, 0.00334207078, 0.00869554036, -0.635874749, -0.000269575056, 0.000917457403, -0.0100419623, 0, 0, 0, 7.848, -0.635874749
1744895331.068154812, 0.00124734926, -0.00677796488, -2.04393616, 0.00613226513, -0.0450226798, -1.38024839, 0.0185306004, -0.164554467, 7.45969646, -0.0103874253, 0.00451528413, -1.43418715, 0.00598131979, 0.00745003062, -0.7821657, 0.0113295958, -0.0264803488, 0.0127303786, 0.0433918541, -0.100934392, 0.0490333616, 0.105608232, -0.243010464, 0.120835607, 0.00334207078, 0.00869554036, -0.635874749, -0.000269575056, 0.000917457403, -0.0100419623, 0, 0, 0, 7.848, -0.635874749
1744895331.070173264, 0.0012596511, -0.0068683393, -2.04668173, 0.00616969887, -0.0453516834, -1.36532336, 0.0189023785, -0.164428336, 7.46318155, -0.0106445144, 0.00461724214, -1.42023451, 0.00593898541, 0.00747617579, -0.785020096, 0.0113295958, -0.0264803488, 0.0127303786, 0.0433918541, -0.100934392, 0.0490333616, 0.105608232, -0.243010464, 0.120835607, 0.00334207078, 0.00869554036, -0.635874749, -0.000269575056, 0.000917457403, -0.0100419623, 0, 0, 0, 7.848, -0.635874749
1744895331.072164297, 0.00127202856, -0.00695937146, -2.04939745, 0.00620788571, -0.0456804314, -1.35039146, 0.0192838525, -0.164299307, 7.46660979, -0.0109073947, 0.0047485208, -1.40658337, 0.00589626324, 0.00750226946, -0.787846888, 0.0113295958, -0.0264803488, 0.0127303786, 0.0433918541, -0.100934392, 0.0490333616, 0.105608232, -0.243010464, 0.120835607, 0.00334207078, 0.00869554036, -0.635874749, -0.000269575056, 0.000917457403, -0.0100419623, 0, 0, 0, 7.848, -0.635874749
1744895331.074168682, 0.00128448316, -0.00705106086, -2.05208329, 0.00624684592, -0.0460089185, -1.33545281, 0.0196758903, -0.16416801, 7.469982, -0.0111759281, 0.00490883965, -1.3932307, 0.00585313882, 0.00752837474, -0.790646676, 0.0113295958, -0.0264803488, 0.0127303786, 0.0433918541, -0.100934392, 0.0490333616, 0.105608232, -0.243010464, 0.120835607, 0.00334207078, 0.00869554036, -0.635874749, 0.000161523268, -0.000107701592, 0.0173704471, 0, 0, 0, 7.848, -0.635874749
1744895331.076193571, 0.00129701648, -0.00714340697, -2.05473925, 0.00628660148, -0.0463371408, -1.32050751, 0.020079345, -0.164035077, 7.47329897, -0.0114499801, 0.00509792066, -1.38017353, 0.0058095978, 0.0075545541, -0.793420054, 0.0113295958, -0.0264803488, 0.0127303786, 0.0433918541, -0.100934392, 0.0490333616, 0.105608232, -0.243010464, 0.120835607, 0.00334207078, 0.00869554036, -0.635874749, 0.000161523268, -0.000107701592, 0.0173704471, 0, 0, 0, 7.848, -0.635874749
1744895331.078116655, 0.00130963012, -0.00723640926, -2.05736532, 0.00632717569, -0.0466650957, -1.30555566, 0.0204944811, -0.163900905, 7.47656151, -0.0117155606, 0.00528239447, -1.36696676, 0.00576564316, 0.00758083367, -0.796167167, 0.0113295958, -0.0264803488, 0.0127303786, 0.0433918541, -0.100934392, 0.0490333616, 0.105608232, -0.243010464, 0.120835607, 0.00334207078, 0.00869554036, -0.635874749, 0.000161523268, -0.000107701592, 0.0173704471, 0, 0, 0, 7.848, -0.635874749
1744895331.080231667, 0.00132232574, -0.00733006718, -2.05996147, 0.00636859158, -0.0469927807, -1.29059739, 0.0209209836, -0.163765643, 7.47977039, -0.0119727745, 0.00546227098, -1.3536119, 0.00572129514, 0.00760720376, -0.798887717, 0.0113295958, -0.0264803488, 0.0127303786, 0.0433918541, -0.100934392, 0.0490333616, 0.105608232, -0.243010464, 0.120835607, 0.00334207078, 0.00869554036, -0.635874749, 0.000161523268, -0.000107701592, 0.0173704471, 0, 0, 0, 7.848, -0.635874749
1744895331.082150698, 0.00133510506, -0.00742438021, -2.0625277, 0.00641087159, -0.0473201938, -1.27563279, 0.0213585391, -0.163629434, 7.48292638, -0.0122217256, 0.00563756036, -1.34011041, 0.00567657376, 0.0076336548, -0.801581411, 0.0113295958, -0.0264803488, 0.0127303786, 0.0433918541, -0.100934392, 0.0490333616, 0.105608232, -0.243010464, 0.120835607, 0.00334207078, 0.00869554036, -0.635874749, 0.000161523268, -0.000107701592, 0.0173704471, 0, 0, 0, 7.848, -0.635874749
1744895331.084159136, 0.00134796982, -0.00751934779, -2.065064, 0.0064540375, -0.0476473332, -1.26066197, 0.0218068356, -0.163492417, 7.48603021, -0.0124625166, 0.00580827302, -1.32646377, 0.00563149889, 0.0076601774, -0.804247956, 0.0113295958, -0.0264803488, 0.0127303786, 0.0433918541, -0.100934392, 0.0490333616, 0.105608232, -0.243010464, 0.120835607, 0.00334207078, 0.00869554036, -0.635874749, 0.000175851363, -0.000111095401, 0.0169687434, 0, 0, 0, 7.848, -0.635874749
1744895331.086158276, 0.00136092182, -0.00761496937, -2.06757034, 0.00649811049, -0.0479741976, -1.24568503, 0.0222655629, -0.163354725, 7.48908262, -0.0126952491, 0.00597441964, -1.31267342, 0.00558609024, 0.00768676234, -0.806887063, 0.0113295958, -0.0264803488, 0.0127303786, 0.0433918541, -0.100934392, 0.0490333616, 0.105608232, -0.243010464, 0.120835607, 0.00334207078, 0.00869554036, -0.635874749, 0.000175851363, -0.000111095401, 0.0169687434, 0, 0, 0, 7.848, -0.635874749
1744895331.088414907, 0.00137396288, -0.00771124441, -2.07004673, 0.0065431111, -0.0483007857, -1.23070207, 0.0227344051, -0.163216487, 7.49208433, -0.0129195617, 0.00613590117, -1.29874729, 0.00554036774, 0.00771340046, -0.809498453, 0.0113295958, -0.0264803488, 0.0127303786, 0.0433918541, -0.100934392, 0.0490333616, 0.105608232, -0.243010464, 0.120835607, 0.00334207078, 0.00869554036, -0.635874749, 0.000175851363, -0.000111095401, 0.0169687434, 0, 0, 0, 7.848, -0.635874749
1744895331.090276480, 0.0013870949, -0.00780817234, -2.07249315, 0.00658905925, -0.0486270965, -1.21571319, 0.0232130412, -0.163077834, 7.49503604, -0.0131355588, 0.00629272895, -1.28468674, 0.00549435157, 0.0077400827, -0.812081856, 0.0113295958, -0.0264803488, 0.0127303786, 0.0433918541, -0.100934392, 0.0490333616, 0.105608232, -0.243010464, 0.120835607, 0.00334207078, 0.00869554036, -0.635874749, 0.000175851363, -0.000111095401, 0.0169687434, 0, 0, 0, 7.848, -0.635874749
1744895331.092224121, 0.00140031977, -0.00790575262, -2.07490958, 0.0066359742, -0.0489531293, -1.2007185, 0.0237011519, -0.162938888, 7.49793844, -0.0133433434, 0.00644491462, -1.27049309, 0.0054480617, 0.00776680014, -0.814637005, 0.0113295958, -0.0264803488, 0.0127303786, 0.0433918541, -0.100934392, 0.0490333616, 0.105608232, -0.243010464, 0.120835607, 0.00334207078, 0.00869554036, -0.635874749, 0.000175851363, -0.000111095401, 0.0169687434, 0, 0, 0, 7.848, -0.635874749
1744895331.094120741, 0.00141363945, -0.00800398468, -2.07729602, 0.00668387458, -0.0492788838, -1.18571808, 0.0241984196, -0.162799768, 7.5007922, -0.0135430178, 0.00659247019, -1.2561677, 0.00540151796, 0.00779354402, -0.817163634, 0.0113295958, -0.0264803488, 0.0127303786, 0.0433918541, -0.100934392, 0.0490333616, 0.105608232, -0.243010464, 0.120835607, 0.00334207078, 0.00869554036, -0.635874749, 0.000188791985, -0.000115326689, 0.0165414567, 0, 0, 0, 7.848, -0.635874749
1744895331.096182346, 0.00142705594, -0.00810286798, -2.07965245, 0.00673277839, -0.0496043595, -1.17071204, 0.0247045287, -0.162660585, 7.50359799, -0.0137346829, 0.006735408, -1.24171187, 0.00535473999, 0.0078203057, -0.819661482, 0.0136332886, -0.031835399, 0.0153356165, 0.0487971429, -0.113357643, 0.0552261535, 0.110562479, -0.253814047, 0.126835537, 0.00334207078, 0.00869554036, -0.635874749, 0.000188791985, -0.000115326689, 0.0165414567, 0, 0, 0, 7.848, -0.662296066
1744895331.099906445, 0.00145418744, -0.00830258603, -2.08427524, 0.0068336651, -0.0502544753, -1.14068345, 0.0257419844, -0.162382471, 7.50906824, -0.0140931361, 0.00700707128, -1.21243471, 0.0052605608, 0.00787384825, -0.824569833, 0.0136332886, -0.031835399, 0.0153356165, 0.0487971429, -0.113357643, 0.0552261535, 0.110562479, -0.253814047, 0.126835537, 0.00334207078, 0.00869554036, -0.635874749, 0.000188791985, -0.000115326689, 0.0165414567, 0, 0, 0, 7.848, -0.662296066
1744895331.100127459, 0.00145418744, -0.00830258603, -2.08427524, 0.0068336651, -0.0502544753, -1.14068345, 0.0257419844, -0.162382471, 7.50906824, -0.0140931361, 0.00700707128, -1.21243471, 0.0052605608, 0.00787384825, -0.824569833, 0.0136332886, -0.031835399, 0.0153356165, 0.0487971429, -0.113357643, 0.0552261535, 0.110562479, -0.253814047, 0.126835537, 0.00334207078, 0.00869554036, -0.635874749, 0.000188791985, -0.000115326689, 0.0165414567, 0, 0, 0, 7.848, -0.662296066
1744895331.102157116, 0.00146790661, -0.00840341967, -2.08654159, 0.0068856808, -0.050579116, -1.1256611, 0.0262726822, -0.16224375, 7.51173395, -0.0142601292, 0.00713582435, -1.19761582, 0.00521319941, 0.00790061219, -0.826979851, 0.0136332886, -0.031835399, 0.0153356165, 0.0487971429, -0.113357643, 0.0552261535, 0.110562479, -0.253814047, 0.126835537, 0.00334207078, 0.00869554036, -0.635874749, 0.000188791985, -0.000115326689, 0.0165414567, 0, 0, 0, 7.848, -0.662296066
1744895331.104168892, 0.00148173088, -0.00850490232, -2.08877788, 0.00693876549, -0.0509034792, -1.11063348, 0.0268109308, -0.162105384, 7.51435421, -0.0144191015, 0.00725987746, -1.18267832, 0.00516568307, 0.0079273602, -0.829360113, 0.0136332886, -0.031835399, 0.0153356165, 0.0487971429, -0.113357643, 0.0552261535, 0.110562479, -0.253814047, 0.126835537, 0.00334207078, 0.00869554036, -0.635874749, 0.000199362653, -0.000118452579, 0.0160661857, 0, 0, 0, 7.848, -0.662296066
1744895331.106174707, 0.0014956624, -0.00860703341, -2.09098412, 0.00699293396, -0.0512275658, -1.09560071, 0.0273564113, -0.161967465, 7.5169296, -0.0145701524, 0.00737924539, -1.16762339, 0.00511803122, 0.00795408415, -0.831710382, 0.0136332886, -0.031835399, 0.0153356165, 0.0487971429, -0.113357643, 0.0552261535, 0.110562479, -0.253814047, 0.126835537, 0.00334207078, 0.00869554036, -0.635874749, 0.000199362653, -0.000118452579, 0.0160661857, 0, 0, 0, 7.848, -0.662296066
1744895331.108313799, 0.00150970335, -0.00870981241, -2.09316028, 0.00704820036, -0.0515513769, -1.08056285, 0.0279088014, -0.161830082, 7.51946073, -0.0147130395, 0.00749384225, -1.15245989, 0.00507026344, 0.007980776, -0.834030433, 0.0136332886, -0.031835399, 0.0153356165, 0.0487971429, -0.113357643, 0.0552261535, 0.110562479, -0.253814047, 0.126835537, 0.00334207078, 0.00869554036, -0.635874749, 0.000199362653, -0.000118452579, 0.0160661857, 0, 0, 0, 7.848, -0.662296066
1744895331.110156298, 0.00152385594, -0.00881323875, -2.09530637, 0.00710457817, -0.0518749135, -1.06552001, 0.0284677752, -0.161693324, 7.52194816, -0.0148478635, 0.00760368412, -1.13718888, 0.00502239936, 0.00800742777, -0.83632005, 0.0136332886, -0.031835399, 0.0153356165, 0.0487971429, -0.113357643, 0.0552261535, 0.110562479, -0.253814047, 0.126835537, 0.00296365253, 0.00974477595, -0.662296066, 0.000199362653, -0.000118452579, 0.0160661857, 0, 0, 0, 7.848, -0.662296066
1744895331.112143755, 0.00153812241, -0.00891731189, -2.09742236, 0.00716208025, -0.052198177, -1.05047226, 0.0290330094, -0.161557273, 7.52439246, -0.0149747239, 0.00770878752, -1.12181145, 0.00497445845, 0.00803403162, -0.838579018, 0.0136332886, -0.031835399, 0.0153356165, 0.0487971429, -0.113357643, 0.0552261535, 0.110562479, -0.253814047, 0.126835537, 0.00296365253, 0.00974477595, -0.662296066, 0.000199362653, -0.000118452579, 0.0160661857, 0, 0, 0, 7.848, -0.662296066
1744895331.114142656, 0.00155250502, -0.00902203128, -2.09950825, 0.00722071879, -0.0525211688, -1.0354197, 0.0296041831, -0.161422006, 7.52679418, -0.0150937191, 0.00780916943, -1.10632867, 0.00492645999, 0.00806057983, -0.840807126, 0.0136332886, -0.031835399, 0.0153356165, 0.0487971429, -0.113357643, 0.0552261535, 0.110562479, -0.253814047, 0.126835537, 0.00296365253, 0.00974477595, -0.662296066, -0.00017845132, 0.000949699886, -0.0114040827, 0, 0, 0, 7.848, -0.662296066
1744895331.116151333, 0.00156700605, -0.00912739639, -2.10156403, 0.00728050534, -0.0528438908, -1.0203624, 0.0301809776, -0.161287595, 7.52915385, -0.015204946, 0.00790484727, -1.09074158, 0.00487842308, 0.00808706479, -0.843004165, 0.0136332886, -0.031835399, 0.0153356165, 0.0487971429, -0.113357643, 0.0552261535, 0.110562479, -0.253814047, 0.126835537, 0.00296365253, 0.00974477595, -0.662296066, -0.00017845132, 0.000949699886, -0.0114040827, 0, 0, 0, 7.848, -0.662296066
1744895331.118577719, 0.00158162782, -0.00923340667, -2.1035897, 0.00734145121, -0.0531663448, -1.00530045, 0.0307636325, -0.161154418, 7.53147201, -0.0153206474, 0.00803031531, -1.0754943, 0.00483035086, 0.00811351563, -0.845170369, 0.0136332886, -0.031835399, 0.0153356165, 0.0487971429, -0.113357643, 0.0552261535, 0.110562479, -0.253814047, 0.126835537, 0.00296365253, 0.00974477595, -0.662296066, -0.00017845132, 0.000949699886, -0.0114040827, 0, 0, 0, 7.848, -0.662296066
1744895331.121243000, 0.00159637264, -0.0093400616, -2.10558523, 0.00740356891, -0.0534885339, -0.990233931, 0.0313529371, -0.161023155, 7.53374917, -0.0154407165, 0.00818528631, -1.06058343, 0.00478223063, 0.00813999778, -0.847306415, 0.0136332886, -0.031835399, 0.0153356165, 0.0487971429, -0.113357643, 0.0552261535, 0.110562479, -0.253814047, 0.126835537, 0.00296365253, 0.00974477595, -0.662296066, -0.00017845132, 0.000949699886, -0.0114040827, 0, 0, 0, 7.848, -0.662296066
1744895331.122622728, 0.00161124288, -0.00944736064, -2.10755063, 0.0074668725, -0.0538104628, -0.975162924, 0.0319496674, -0.160894491, 7.53598583, -0.0155650501, 0.00836947549, -1.0460056, 0.00473404975, 0.00816657592, -0.849412971, 0.0136332886, -0.031835399, 0.0153356165, 0.0487971429, -0.113357643, 0.0552261535, 0.110562479, -0.253814047, 0.126835537, 0.00296365253, 0.00974477595, -0.662296066, -0.00017845132, 0.000949699886, -0.0114040827, 0, 0, 0, 7.848, -0.662296066
1744895331.124383926, 0.00162624093, -0.00955530329, -2.10948588, 0.00753137762, -0.0541321372, -0.96008751, 0.0325545866, -0.160769106, 7.53818248, -0.0156935485, 0.00858260063, -1.03175749, 0.00468579569, 0.00819331404, -0.851490701, 0.0136332886, -0.031835399, 0.0153356165, 0.0487971429, -0.113357643, 0.0552261535, 0.110562479, -0.253814047, 0.126835537, 0.00296365253, 0.00974477595, -0.662296066, 0.000206221433, -0.000101704974, 0.014467467, 0, 0, 0, 7.848, -0.662296066
1744895331.126464605, 0.00164136921, -0.00966388904, -2.11139097, 0.00759710139, -0.0544535646, -0.945007767, 0.0331684452, -0.160647682, 7.5403396, -0.0158261148, 0.008824382, -1.0178358, 0.00463745597, 0.00822027539, -0.85354026, 0.0136332886, -0.031835399, 0.0153356165, 0.0487971429, -0.113357643, 0.0552261535, 0.110562479, -0.253814047, 0.126835537, 0.00296365253, 0.00974477595, -0.662296066, 0.000206221433, -0.000101704974, 0.014467467, 0, 0, 0, 7.848, -0.662296066
1744895331.128503561, 0.00165663017, -0.0097731174, -2.11326591, 0.00766406206, -0.0547747531, -0.929923773, 0.0337914318, -0.160530596, 7.54245767, -0.0159502848, 0.009060607, -1.00381998, 0.00458903405, 0.00824748671, -0.85556188, 0.0136332886, -0.031835399, 0.0153356165, 0.0487971429, -0.113357643, 0.0552261535, 0.110562479, -0.253814047, 0.126835537, 0.00296365253, 0.00974477595, -0.662296066, 0.000206221433, -0.000101704974, 0.014467467, 0, 0, 0, 7.848, -0.662296066
1744895331.130433798, 0.0016720263, -0.0098829879, -2.11511067, 0.00773227753, -0.0550957116, -0.914835605, 0.0344231816, -0.160417919, 7.54453716, -0.0160661661, 0.00929130258, -0.98971097, 0.00454054917, 0.00827493861, -0.857555374, 0.0136332886, -0.031835399, 0.0153356165, 0.0487971429, -0.113357643, 0.0552261535, 0.110562479, -0.253814047, 0.126835537, 0.00296365253, 0.00974477595, -0.662296066, 0.000206221433, -0.000101704974, 0.014467467, 0, 0, 0, 7.848, -0.662296066
